"success","trial_type","trial_index","time_elapsed","internal_node_id","rt","stimulus","key_press","subject_id","participant_id","age","gender","prompt","response","choice_outcomes","context_n","context_img_id","trial_n","probe_img_id","pR_red","pR_white","pR_black","outcome","contextArray_ind","validImageProbes","invalidImageProbes","pRew_Red","pRew_White","pRew_Black","availableForMemProbe","choice_blocks"
"true","fullscreen","0","11539","0.0-0.0","","","","","","","","","","","","","","","","","","","","","","","","","",""
"","pavlovia","1","11548","0.0-1.0","","","","","","","","","","","","","","","","","","","","","","","","","",""
"","instruc1","2","62795","0.0-2.0","null","run_exp/static/audio/clip_1_welcome.m4a","null","104","385","8","Male","<div class='center'><p>Welcome! This is the first part of the experiment. It will last ~30 minutes. In this experiment, you are the head captain of a pirate ship traveling around the world to different islands. You will play a few different games during this experiment. Here is an overview of these games:</p><br><p>Part 1 (today)</p><p>1. Instructions, practice game, and quiz</p><p>2. Pick a pirate game on 6 different islands</p><br><p>Part 2 (1 day later)</p><p>3. Pick a pirate game and memory game</p><p>4. Where did I see this ship? game</p><p>5. Which pirate was the best? game</p><br><p>Part 3 (1 week later)</p><p>6. Memory game</p></div>","","","","","","","","","","","","","","","","","",""
"","html-keyboard-response","3","67310","0.0-3.0","4511.0999999940395","<div class='center'><p>Welcome! This is the first part of the experiment. It will last ~30 minutes. In this experiment, you are the head captain of a pirate ship traveling around the world to different islands. You will play a few different games during this experiment. Here is an overview of these games:</p><br><p>Part 1 (today)</p><p>1. Instructions, practice game, and quiz</p><p>2. Pick a pirate game on 6 different islands</p><br><p>Part 2 (1 day later)</p><p>3. Pick a pirate game and memory game</p><p>4. Where did I see this ship? game</p><p>5. Which pirate was the best? game</p><br><p>Part 3 (1 week later)</p><p>6. Memory game</p><p><b>[Press the space bar to continue]</b></p></div>","32","","","","","","","","","","","","","","","","","","","","","","",""
"","instruc2","4","75335","0.0-4.0","null","run_exp/static/audio/clip_2_different_places.m4a","null","","","","","<div class='center'><p>Today, you’ll visit these 6 islands on your journey. You'll be able to see these islands from your ship.</p><p><img src='run_exp/static/images/contexts/all_contexts.png' height='500'></p></div>","","","","","","","","","","","","","","","","","",""
"","html-keyboard-response","5","79524","0.0-5.0","4183.800000011921","<div class='center'><p>Today, you’ll visit these 6 islands on your journey. You'll be able to see these islands from your ship.</p><p><img src='run_exp/static/images/contexts/all_contexts.png' height='500'></p><p><b>[Press the space bar to continue]</b></p></div>","32","","","","","","","","","","","","","","","","","","","","","","",""
"","instruc3","6","92135","0.0-6.0","null","run_exp/static/audio/clip_3_goal_of_game_1.m4a","null","","","","","<div class='center'><p> The pirates on your ship will rob other ships as they leave the island</p> These ships have just sold their things to people on the island, so they will be filled with lots and lots of gold.</p><p><img src='run_exp/static/images/tutorial/ship_center.png' height='400'></p></div>","","","","","","","","","","","","","","","","","",""
"","html-keyboard-response","7","93191","0.0-7.0","1052.5999999940395","<div class='center'><p> The pirates on your ship will rob other ships as they leave the island</p> These ships have just sold their things to people on the island, so they will be filled with lots and lots of gold.</p><p><img src='run_exp/static/images/tutorial/ship_center.png' height='400'></p><p><b>[Press the space bar to continue]</b></p></div>","32","","","","","","","","","","","","","","","","","","","","","","",""
"","instruc4","8","126436","0.0-8.0","null","run_exp/static/audio/clip_4_goal_of_game_2.m4a","null","","","","","<div class='center'><p>As the head captain, you do not have to rob any ships yourself.</p><p>Another pirate will be doing the robbing for you. </p><p>First, you will  choose a pirate to rob the next ship.</p><p><img src='run_exp/static/images/tutorial/pirates_all_crop.png' height='200'></p><p>Then, you'll see if the pirate successfully robbed the ship of their gold. If they were successful, then you'll  get a stack of gold coins like this:</p><p><img src='run_exp/static/images/tutorial/reward.png' height='150'></p><p> If they were <b>not</b> successful, then you'll get no gold coins, and you'll see a big red x like this: </p><p><img src='run_exp/static/images/tutorial/reward_no.png' height='150'></p><p> How much bonus money you make is based on how many gold coins you collect.</p><div>","","","","","","","","","","","","","","","","","",""
"","html-keyboard-response","9","133018","0.0-9.0","6577.700000017881","<div class='center'><p>As the head captain, you do not have to rob any ships yourself.</p><p>Another pirate will be doing the robbing for you. </p><p>First, you will  choose a pirate to rob the next ship.</p><p><img src='run_exp/static/images/tutorial/pirates_all_crop.png' height='200'></p><p>Then, you'll see if the pirate successfully robbed the ship of their gold. If they were successful, then you'll  get a stack of gold coins like this:</p><p><img src='run_exp/static/images/tutorial/reward.png' height='150'></p><p> If they were <b>not</b> successful, then you'll get no gold coins, and you'll see a big red x like this: </p><p><img src='run_exp/static/images/tutorial/reward_no.png' height='150'></p><p> How much bonus money you make is based on how many gold coins you collect.</p<p><b>[Press the space bar to continue]</b></p></div>","32","","","","","","","","","","","","","","","","","","","","","","",""
"","instruc5","10","158411","0.0-10.0","25388.80000001192","run_exp/static/audio/clip_5_probabilistic.m4a","49","","","","","<div class='center'><p>Even the most skilled pirate can not rob EVERY ship.</p><p> Some ships will have very strong protections against pirate attacks.</p><p> Blue beard, here, is very, very good at robbing ships, but he won't be successful every time he tries to rob one.</p><p> You can press the <b>‘1’</b> key on the keyboard to choose him.</p><p> Try choosing him 10 times to see how often he succeeds at robbing a ship. </p><p><img src='run_exp/static/images/tutorial/blue.png' height='500'></p></div>","","","","","","","","","","","","","","","","","",""
"","html-keyboard-response","11","159920","0.0-11.0","null","<div class='center'><p><img src='run_exp/static/images/tutorial/blue_win.png' height='500'></p></div>","null","","","","","","","","","","","","","","","","","","","","","","",""
"","html-keyboard-response","12","161615","0.0-12.0","1692.9000000059605","<div class='center'><img src='run_exp/static/images/tutorial/blue.png' height='500'></p></div>","49","","","","","","","","","","","","","","","","","","","","","","",""
"","html-keyboard-response","13","163131","0.0-13.0","null","<div class='center'><p><img src='run_exp/static/images/tutorial/blue_win.png' height='500'></p></div>","null","","","","","","","","","","","","","","","","","","","","","","",""
"","html-keyboard-response","14","163520","0.0-14.0","386.90000000596046","<div class='center'><img src='run_exp/static/images/tutorial/blue.png' height='500'></p></div>","49","","","","","","","","","","","","","","","","","","","","","","",""
"","html-keyboard-response","15","165026","0.0-15.0","null","<div class='center'><p><img src='run_exp/static/images/tutorial/blue_win.png' height='500'></p></div>","null","","","","","","","","","","","","","","","","","","","","","","",""
"","html-keyboard-response","16","165337","0.0-16.0","309.19999998807907","<div class='center'><img src='run_exp/static/images/tutorial/blue.png' height='500'></p></div>","49","","","","","","","","","","","","","","","","","","","","","","",""
"","html-keyboard-response","17","166849","0.0-17.0","null","<div class='center'><p><img src='run_exp/static/images/tutorial/blue_no_win.png' height='500'></p></div>","null","","","","","","","","","","","","","","","","","","","","","","",""
"","html-keyboard-response","18","167974","0.0-18.0","1123.7999999821186","<div class='center'><img src='run_exp/static/images/tutorial/blue.png' height='500'></p></div>","49","","","","","","","","","","","","","","","","","","","","","","",""
"","html-keyboard-response","19","169488","0.0-19.0","null","<div class='center'><p><img src='run_exp/static/images/tutorial/blue_win.png' height='500'></p></div>","null","","","","","","","","","","","","","","","","","","","","","","",""
"","html-keyboard-response","20","170416","0.0-20.0","925.5","<div class='center'><img src='run_exp/static/images/tutorial/blue.png' height='500'></p></div>","49","","","","","","","","","","","","","","","","","","","","","","",""
"","html-keyboard-response","21","171922","0.0-21.0","null","<div class='center'><p><img src='run_exp/static/images/tutorial/blue_win.png' height='500'></p></div>","null","","","","","","","","","","","","","","","","","","","","","","",""
"","html-keyboard-response","22","172252","0.0-22.0","329","<div class='center'><img src='run_exp/static/images/tutorial/blue.png' height='500'></p></div>","49","","","","","","","","","","","","","","","","","","","","","","",""
"","html-keyboard-response","23","173769","0.0-23.0","null","<div class='center'><p><img src='run_exp/static/images/tutorial/blue_win.png' height='500'></p></div>","null","","","","","","","","","","","","","","","","","","","","","","",""
"","html-keyboard-response","24","174202","0.0-24.0","431.40000000596046","<div class='center'><img src='run_exp/static/images/tutorial/blue.png' height='500'></p></div>","49","","","","","","","","","","","","","","","","","","","","","","",""
"","html-keyboard-response","25","175717","0.0-25.0","null","<div class='center'><p><img src='run_exp/static/images/tutorial/blue_no_win.png' height='500'></p></div>","null","","","","","","","","","","","","","","","","","","","","","","",""
"","html-keyboard-response","26","176228","0.0-26.0","509.09999999403954","<div class='center'><img src='run_exp/static/images/tutorial/blue.png' height='500'></p></div>","49","","","","","","","","","","","","","","","","","","","","","","",""
"","html-keyboard-response","27","177739","0.0-27.0","null","<div class='center'><p><img src='run_exp/static/images/tutorial/blue_win.png' height='500'></p></div>","null","","","","","","","","","","","","","","","","","","","","","","",""
"","html-keyboard-response","28","178219","0.0-28.0","477.80000001192093","<div class='center'><img src='run_exp/static/images/tutorial/blue.png' height='500'></p></div>","49","","","","","","","","","","","","","","","","","","","","","","",""
"","html-keyboard-response","29","179732","0.0-29.0","null","<div class='center'><p><img src='run_exp/static/images/tutorial/blue_win.png' height='500'></p></div>","null","","","","","","","","","","","","","","","","","","","","","","",""
"","instruc6","30","186449","0.0-30.0","null","run_exp/static/audio/clip_6_blue_beard_outcome.m4a","null","","","","","<div class='center'><p> See, he succeeded in robbing the ships most of the time but not every time. </p></div>","","","","","","","","","","","","","","","","","",""
"","html-keyboard-response","31","188064","0.0-31.0","1613","<div class='center'><p> See, he succeeded in robbing the ships most of the time but not every time. </p><p><b>[Press the space bar to continue]</b></p></div>","32","","","","","","","","","","","","","","","","","","","","","","",""
"","audio-keyboard-response","32","204599","0.0-32.0","16530.90000000596","run_exp/static/audio/clip_7_pick_pirate.m4a","51","","","","","","","","","","","","","","","","","","","","","","",""
"","audio-keyboard-response","33","208761","0.0-33.0-0.0","4156.200000017881","run_exp/static/audio/clip_8_chosen_pirate_win.m4a","32","","","","","","","","","","","","","","","","","","","","","","",""
"","audio-keyboard-response","34","211632","0.0-33.0-1.0","2867.800000011921","run_exp/static/audio/clip_9_pick_a_pirate_again.m4a","50","","","","","","","","","","","","","","","","","","","","","","",""
"","audio-keyboard-response","35","214874","0.0-34.0-0.0","3237.7000000178814","run_exp/static/audio/clip_10_chosen_pirate_loss.m4a","32","","","","","","","","","","","","","","","","","","","","","","",""
"","instruc9","36","222050","0.0-35.0-0.0","null","run_exp/static/audio/clip_11_time_out.m4a","null","","","","","<div class='center'><p>If you don’t make your choice fast enough, you’ll have to wait a few seconds before you can make another one. </p><p><img src='run_exp/static/images/miscellaneous/hurry_up.png' height='500'></p></div>","","","","","","","","","","","","","","","","","",""
"","html-keyboard-response","37","223207","0.0-35.0-1.0","1153.8999999761581","<div class='center'><p>If you don’t make your choice fast enough, you’ll have to wait a few seconds before you can make another one. </p><p><img src='run_exp/static/images/miscellaneous/hurry_up.png' height='500'></p><p><b>[Press the space bar to continue]</b></p></div>","32","","","","","","","","","","","","","","","","","","","","","","",""
"","instruc10","38","271849","0.0-35.0-2.0","null","run_exp/static/audio/clip_12_probe.m4a","null","","","","","<div class='center'><p>Once you've choose a pirate, you’ll be shown the ship they are robbing.</p><p>You will never rob the same ship twice. After all, ships that have already been robbed won’t have gold on them. </p><p>Ships can be told apart from one another by the image on them. See, this one has a travel mug on it. </p><p> You’ll have to remember which island you saw each ship on.You will win more bonus money if you remember correctly! To help you remember, you can imagine a story. For example, here, you could imagine a mug full of water in the desert. Or, as another example, if on the forest island, your pirate robbed a ship with an apple on it, you could imagine an apple falling from a tree in the forest. </p><p><img src='run_exp/static/images/tutorial/example_probe.png' height='500'></p></div>","","","","","","","","","","","","","","","","","",""
"","html-keyboard-response","39","274173","0.0-35.0-3.0","2319.300000011921","<div class='center'><p>Once you've choose a pirate, you’ll be shown the ship they are robbing.</p><p>You will never rob the same ship twice. After all, ships that have already been robbed won’t have gold on them. </p><p>Ships can be told apart from one another by the image on them. See, this one has a travel mug on it. </p><p> You’ll have to remember which island you saw each ship on.You will win more bonus money if you remember correctly! To help you remember, you can imagine a story. For example, here, you could imagine a mug full of water in the desert. Or, as another example, if on the forest island, your pirate robbed a ship with an apple on it, you could imagine an apple falling from a tree in the forest. </p><p><img src='run_exp/static/images/tutorial/example_probe.png' height='500'></p><p><b>[Press the space bar to continue]</b></p></div>","32","","","","","","","","","","","","","","","","","","","","","","",""
"","instruc11","40","295109","0.0-35.0-4.0","null","run_exp/static/audio/clip_13_changepoint.m4a","null","","","","","<div class='center'><p>How successful a pirate is at robbing ships will depend on the island you’re on.</p><p> A pirate may have visited this island many times before and gained a lot of practice robbing ships there.</p><p>So, they’re more likely to be successful than a pirate who has never visited the island before.</p></div>","","","","","","","","","","","","","","","","","",""
"","html-keyboard-response","41","296018","0.0-35.0-5.0","904.6999999880791","<div class='center'><p>How successful a pirate is at robbing ships will depend on the island you’re on.</p><p> A pirate may have visited this island many times before and gained a lot of practice robbing ships there.</p><p>So, they’re more likely to be successful than a pirate who has never visited the island before.</p><p><b>[Press the space bar to continue]</b></p></div>","32","","","","","","","","","","","","","","","","","","","","","","",""
"","instruc12","42","324069","0.0-35.0-6.0","null","run_exp/static/audio/clip_14_drift.m4a","null","","","","","<div class='center'><p>How successful a pirate is at robbing ships can also change over the time spent on the island. </p><p> Ships may hear from islanders about the pirates coming and will improve their protections against the attack. This may make it harder to rob them.</p><p> Ships may also become lazy and weaken the strength of their protections. This may make it easier to rob them.</p><br><p>Things are always changing on the high seas! So, try your best to pay attention!</p><p><img src='run_exp/static/images/tutorial/contingency.png' height='500'></p></div>","","","","","","","","","","","","","","","","","",""
"","html-keyboard-response","43","325470","0.0-35.0-7.0","1396.300000011921","<div class='center'><p>How successful a pirate is at robbing ships can also change over the time spent on the island. </p><p> Ships may hear from islanders about the pirates coming and will improve their protections against the attack. This may make it harder to rob them.</p><p> Ships may also become lazy and weaken the strength of their protections. This may make it easier to rob them.</p><br><p>Things are always changing on the high seas! So, try your best to pay attention!</p><p><img src='run_exp/static/images/tutorial/contingency.png' height='500'></p><p><b>[Press the space bar to continue]</b></p></div>","32","","","","","","","","","","","","","","","","","","","","","","",""
"","instruc13","44","370694","0.0-35.0-8.0","null","run_exp/static/audio/clip_15_summary.m4a","null","","","","","<div class='center'><p>Let's go over the instructions quickly again. You have two important things to do: </p><b><p> 1. Pick the pirate who is the best at robbing ships on the current island. This way you'll collect more gold coins!</p></b><b><p> 2. Remember on which island a ship was robbed.</p> </b><p>The amount of bonus money you can win depends on both.</p><p><br><p>Let’s try a practice game. The game will start by showing you the pirates. First, pick a pirate using the <b> 1, 2, 3 </b> keys on your keyboard. When you are shown a ship, try to remember which island you’re on by making up a story.</p><p>This is just a practice game, so you’re not playing for money. </p><p> Good luck! This game will be very difficult but try your best!</p></div>","","","","","","","","","","","","","","","","","",""
"","html-keyboard-response","45","371557","0.0-35.0-9.0","858.8000000119209","<div class='center'><p>Let's go over the instructions quickly again. You have two important things to do: </p><b><p> 1. Pick the pirate who is the best at robbing ships on the current island. This way you'll collect more gold coins!</p></b><b><p> 2. Remember on which island a ship was robbed.</p> </b><p>The amount of bonus money you can win depends on both.</p><p><br><p>Let’s try a practice game. The game will start by showing you the pirates. First, pick a pirate using the <b> 1, 2, 3 </b> keys on your keyboard. When you are shown a ship, try to remember which island you’re on by making up a story.</p><p>This is just a practice game, so you’re not playing for money. </p><p> Good luck! This game will be very difficult but try your best!</p><p><b>[Press the space bar to continue]</b></p></div>","32","","","","","","","","","","","","","","","","","","","","","","",""
"","do_welcome","46","375613","0.0-35.0-10.0","null","","","","","","","","null","","","","","","","","","","","","","","","","",""
"","do_trial","47","381643","0.0-35.0-11.0","null","","","","","","","","null","1,0,0","","","","","","","","","","","","","","","",""
"","html-keyboard-response","48","382660","0.0-36.0-0.0","null","<p></p>","null","","","","","","","","","","","","","","","","","","","","","","",""
"","do_trial","49","388642","0.0-36.0-1.0","1463.7000000178814","","","","","","","","51","1,0,0","","","","","","","","","","","","","","","",""
"","html-keyboard-response","50","389656","0.0-37.0-0.0","null","<p></p>","null","","","","","","","","","","","","","","","","","","","","","","",""
"","do_trial","51","396243","0.0-37.0-1.0","2075.7999999821186","","","","","","","","49","1,1,0","","","","","","","","","","","","","","","",""
"","html-keyboard-response","52","397258","0.0-38.0-0.0","null","<p></p>","null","","","","","","","","","","","","","","","","","","","","","","",""
"","do_trial","53","403961","0.0-38.0-1.0","2180.699999988079","","","","","","","","50","1,0,1","","","","","","","","","","","","","","","",""
"","html-keyboard-response","54","404965","0.0-39.0-0.0","null","<p></p>","null","","","","","","","","","","","","","","","","","","","","","","",""
"","do_trial","55","411994","0.0-39.0-1.0","2511.5","","","","","","","","49","0,1,0","","","","","","","","","","","","","","","",""
"","html-keyboard-response","56","413007","0.0-40.0-0.0","null","<p></p>","null","","","","","","","","","","","","","","","","","","","","","","",""
"","do_trial","57","420522","0.0-40.0-1.0","3000.9000000059605","","","","","","","","49","1,0,0","","","","","","","","","","","","","","","",""
"","do_bye","58","422028","0.0-41.0-0.0","null","","","","","","","","null","","","","","","","","","","","","","","","","",""
"","do_travel","59","431036","0.0-41.0-1.0","null","","","","","","","","null","","","","","","","","","","","","","","","","",""
"","do_welcome","60","435043","0.0-41.0-2.0","null","","","","","","","","null","","","","","","","","","","","","","","","","",""
"","do_trial","61","441213","0.0-41.0-3.0","1632.199999988079","","","","","","","","49","1,0,0","","","","","","","","","","","","","","","",""
"","html-keyboard-response","62","442218","0.0-42.0-0.0","null","<p></p>","null","","","","","","","","","","","","","","","","","","","","","","",""
"","do_trial","63","448645","0.0-42.0-1.0","1912.800000011921","","","","","","","","50","1,0,1","","","","","","","","","","","","","","","",""
"","html-keyboard-response","64","449653","0.0-43.0-0.0","null","<p></p>","null","","","","","","","","","","","","","","","","","","","","","","",""
"","do_trial","65","455678","0.0-43.0-1.0","null","","","","","","","","null","1,1,0","","","","","","","","","","","","","","","",""
"","html-keyboard-response","66","456695","0.0-44.0-0.0","null","<p></p>","null","","","","","","","","","","","","","","","","","","","","","","",""
"","do_trial","67","461820","0.0-44.0-1.0","616.3000000119209","","","","","","","","51","1,1,0","","","","","","","","","","","","","","","",""
"","html-keyboard-response","68","462836","0.0-45.0-0.0","null","<p></p>","null","","","","","","","","","","","","","","","","","","","","","","",""
"","do_trial","69","469655","0.0-45.0-1.0","2299.800000011921","","","","","","","","50","0,0,1","","","","","","","","","","","","","","","",""
"","html-keyboard-response","70","470669","0.0-46.0-0.0","null","<p></p>","null","","","","","","","","","","","","","","","","","","","","","","",""
"","do_trial","71","476694","0.0-46.0-1.0","null","","","","","","","","null","1,0,1","","","","","","","","","","","","","","","",""
"","html-keyboard-response","72","477710","0.0-47.0-0.0","null","<p></p>","null","","","","","","","","","","","","","","","","","","","","","","",""
"","do_trial","73","482939","0.0-47.0-1.0","709.3000000119209","","","","","","","","51","1,0,1","","","","","","","","","","","","","","","",""
"","html-keyboard-response","74","487649","0.0-48.0-0.0","4708.4000000059605","<div class='center'><p><img src='run_exp/static/images/tutorial/prac_best_pirate.png'  height='500'></p></div>","50","","","","","","","","","","","","","","","","","","","","","","",""
"","html-keyboard-response","75","490517","0.0-49.0-0.0","2867.300000011921","<div class='center'><p>That's incorrect! Red beard was the best.</p><p><b>[Press the space bar to continue]</b></p></div>","32","","","","","","","","","","","","","","","","","","","","","","",""
"","html-keyboard-response","76","494847","0.0-49.0-1.0","4328","<div class='center'><p><img src='run_exp/static/images/tutorial/prac_source.png'  height='500'></p></div>","49","","","","","","","","","","","","","","","","","","","","","","",""
"","html-keyboard-response","77","497487","0.0-50.0-0.0","2638.5","<div class='center'><p>That's incorrect! You saw this ship on the cavern island</p><p><b>[Press the space bar to continue]</b></p></div>","32","","","","","","","","","","","","","","","","","","","","","","",""
"","quiz_beginning","78","512229","0.0-50.0-1.0","null","run_exp/static/audio/clip_16_quiz_intro.m4a","null","","","","","<div class='center'><p>Good job on the practice game! Now, you will be asked some true or false questions to make sure you really understand the rules of the game.</p><p> Press <b>'1'</b> on the keyboard for true and press <b>'2'</b> for false.</p></div>","","","","","","","","","","","","","","","","","",""
"","audio-keyboard-response","79","518283","0.0-50.0-2.0","6051.5","run_exp/static/audio/clip_17_q1.m4a","50","","","","","","","","","","","","","","","","","","","","","","",""
"","correct","80","521269","0.0-51.0-0.0","null","run_exp/static/audio/clip_18_correct.m4a","null","","","","","<div class='center'><p>That's correct!</p></div>","","","","","","","","","","","","","","","","","",""
"","html-keyboard-response","81","522856","0.0-51.0-1.0","1585.9000000059605","<div class='center'><p>That's correct!</p><p><b>[Press the space bar to continue]</b></p></div>","32","","","","","","","","","","","","","","","","","","","","","","",""
"","audio-keyboard-response","82","528066","0.0-51.0-2.0","5207.9000000059605","run_exp/static/audio/clip_20_q2.m4a","50","","","","","","","","","","","","","","","","","","","","","","",""
"","correct","83","531029","0.0-52.0-0.0","null","run_exp/static/audio/clip_18_correct.m4a","null","","","","","<div class='center'><p>That's correct!</p></div>","","","","","","","","","","","","","","","","","",""
"","html-keyboard-response","84","532339","0.0-52.0-1.0","1309.2000000178814","<div class='center'><p>That's correct!</p><p><b>[Press the space bar to continue]</b></p></div>","32","","","","","","","","","","","","","","","","","","","","","","",""
"","audio-keyboard-response","85","539146","0.0-52.0-2.0","6805.199999988079","run_exp/static/audio/clip_22_q3.m4a","50","","","","","","","","","","","","","","","","","","","","","","",""
"","correct","86","542109","0.0-53.0-0.0","null","run_exp/static/audio/clip_18_correct.m4a","null","","","","","<div class='center'><p>That's correct!</p></div>","","","","","","","","","","","","","","","","","",""
"","html-keyboard-response","87","543431","0.0-53.0-1.0","1321.0999999940395","<div class='center'><p>That's correct!</p><p><b>[Press the space bar to continue]</b></p></div>","32","","","","","","","","","","","","","","","","","","","","","","",""
"","audio-keyboard-response","88","547175","0.0-53.0-2.0","3743.399999976158","run_exp/static/audio/clip_24_q4.m4a","49","","","","","","","","","","","","","","","","","","","","","","",""
"","correct","89","550209","0.0-54.0-0.0","null","run_exp/static/audio/clip_18_correct.m4a","null","","","","","<div class='center'><p>That's correct!</p></div>","","","","","","","","","","","","","","","","","",""
"","html-keyboard-response","90","551136","0.0-54.0-1.0","925.8999999761581","<div class='center'><p>That's correct!</p><p><b>[Press the space bar to continue]</b></p></div>","32","","","","","","","","","","","","","","","","","","","","","","",""
"","q_all_corr","91","560070","0.0-55.0-0.0","null","run_exp/static/audio/clip_27_quiz_all_correct.m4a","null","","","","","<div class='center'><p>Good job! You’re now ready to move on to the real game! Remember this game will be difficult but don't get discouraged and try your best!</p></div>","","","","","","","","","","","","","","","","","",""
"","html-keyboard-response","92","561280","0.0-55.0-1.0","1209","<div class='center'><p>Good job! You’re now ready to move on to the real game! Remember this game will be difficult but don't get discouraged and try your best!</p><p><b>[Press the space bar to continue]</b></p></div>","32","","","","","","","","","","","","","","","","","","","","","","",""
"","do_welcome","93","565290","0.0-56.0-0.0","null","","","","","","","","null","","","","","","","","","","","","","","","","",""
"","do_trial","94","572083","0.0-57.0-0.0","2224.800000011921","","","","","","","","49","1,0,0","0","forest","0","probe-31","0.6","0.3","0.1","1","","","","","","","",""
"","html-keyboard-response","95","573095","0.0-57.0-1.0","null","<p></p>","null","","","","","","","","","","","","","","","","","","","","","","",""
"","do_trial","96","579154","0.0-58.0-0.0","null","","","","","","","","null","1,0,0","0","forest","1","probe-04","0.7270770140292083","0.3424385010299295","0.08711157553647757","","","","","","","","",""
"","html-keyboard-response","97","580166","0.0-58.0-1.0","null","<p></p>","null","","","","","","","","","","","","","","","","","","","","","","",""
"","do_trial","98","586236","0.0-59.0-0.0","null","","","","","","","","null","1,0,0","0","forest","2","probe-130","0.6635691917400716","0.2811902678017769","0.1285311382351107","","","","","","","","",""
"","html-keyboard-response","99","587254","0.0-59.0-1.0","null","<p></p>","null","","","","","","","","","","","","","","","","","","","","","","",""
"","do_trial","100","592101","0.0-60.0-0.0","278.89999997615814","","","","","","","","50","0,0,0","0","forest","3","probe-201","0.6175553838508713","0.3431547599425385","0.21314086037049054","0","","","","","","","",""
"","html-keyboard-response","101","593104","0.0-60.0-1.0","null","<p></p>","null","","","","","","","","","","","","","","","","","","","","","","",""
"","do_trial","102","600318","0.0-61.0-0.0","2657.300000011921","","","","","","","","49","1,1,1","0","forest","4","probe-19","0.7115917446691638","0.40295977939623046","0.12372488423014318","1","","","","","","","",""
"","html-keyboard-response","103","601335","0.0-61.0-1.0","null","<p></p>","null","","","","","","","","","","","","","","","","","","","","","","",""
"","do_trial","104","606990","0.0-62.0-0.0","1110.7999999821186","","","","","","","","50","0,0,0","0","forest","5","probe-161","0.6457933979301705","0.32942650966623205","0.11734220729056107","0","","","","","","","",""
"","html-keyboard-response","105","607993","0.0-62.0-1.0","null","<p></p>","null","","","","","","","","","","","","","","","","","","","","","","",""
"","do_trial","106","613409","0.0-63.0-0.0","860.2999999821186","","","","","","","","49","1,0,0","0","forest","6","probe-136","0.720054177371829","0.4211592443547268","0.10845217071018089","1","","","","","","","",""
"","html-keyboard-response","107","614413","0.0-63.0-1.0","null","<p></p>","null","","","","","","","","","","","","","","","","","","","","","","",""
"","do_trial","108","620491","0.0-64.0-0.0","null","","","","","","","","null","1,1,0","0","forest","7","probe-105","0.7365189294648282","0.4002287483962952","0.24401235450286649","","","","","","","","",""
"","html-keyboard-response","109","621494","0.0-64.0-1.0","null","<p></p>","null","","","","","","","","","","","","","","","","","","","","","","",""
"","do_trial","110","626265","0.0-65.0-0.0","214.59999999403954","","","","","","","","49","1,1,0","0","forest","8","probe-184","0.6153470882307287","0.40920621213746894","0.2649960127680037","1","","","","","","","",""
"","html-keyboard-response","111","627268","0.0-65.0-1.0","null","<p></p>","null","","","","","","","","","","","","","","","","","","","","","","",""
"","do_trial","112","632122","0.0-66.0-0.0","288.59999999403954","","","","","","","","49","1,1,0","0","forest","9","probe-206","0.46919217702170174","0.3734900019748308","0.26507223688056447","1","","","","","","","",""
"","html-keyboard-response","113","633138","0.0-66.0-1.0","null","<p></p>","null","","","","","","","","","","","","","","","","","","","","","","",""
"","do_trial","114","640051","0.0-67.0-0.0","2361.300000011921","","","","","","","","49","1,1,0","0","forest","10","probe-06","0.5405508040917146","0.32874866392050683","0.18479809872506445","1","","","","","","","",""
"","html-keyboard-response","115","641053","0.0-67.0-1.0","null","<p></p>","null","","","","","","","","","","","","","","","","","","","","","","",""
"","do_trial","116","646303","0.0-68.0-0.0","692.5999999940395","","","","","","","","49","0,0,0","0","forest","11","probe-217","0.5825756459053015","0.33188050696018484","0.056277651633572394","0","","","","","","","",""
"","html-keyboard-response","117","647319","0.0-68.0-1.0","null","<p></p>","null","","","","","","","","","","","","","","","","","","","","","","",""
"","do_trial","118","652599","0.0-69.0-0.0","724","","","","","","","","49","0,0,0","0","forest","12","probe-107","0.48043701481643597","0.37377612874656346","0.06037990274107238","0","","","","","","","",""
"","html-keyboard-response","119","653602","0.0-69.0-1.0","null","<p></p>","null","","","","","","","","","","","","","","","","","","","","","","",""
"","do_trial","120","658449","0.0-70.0-0.0","278","","","","","","","","51","1,0,0","0","forest","13","probe-208","0.36944231546322337","0.1672915387782927","0.07356469255563071","0","","","","","","","",""
"","html-keyboard-response","121","659461","0.0-70.0-1.0","null","<p></p>","null","","","","","","","","","","","","","","","","","","","","","","",""
"","do_trial","122","664728","0.0-71.0-0.0","707.5999999940395","","","","","","","","49","0,0,0","0","forest","14","probe-174","0.5287690227036762","0.2696684874851684","0.06605617241579405","0","","","","","","","",""
"","html-keyboard-response","123","665744","0.0-71.0-1.0","null","<p></p>","null","","","","","","","","","","","","","","","","","","","","","","",""
"","do_trial","124","670668","0.0-72.0-0.0","371.40000000596046","","","","","","","","50","1,0,0","0","forest","15","probe-183","0.565530578205574","0.30547425964911634","0.08281622944877036","0","","","","","","","",""
"","html-keyboard-response","125","671682","0.0-72.0-1.0","null","<p></p>","null","","","","","","","","","","","","","","","","","","","","","","",""
"","do_trial","126","676433","0.0-73.0-0.0","207.10000002384186","","","","","","","","51","1,1,0","0","forest","16","probe-03","0.5978345746093136","0.2204140634390744","0.13866092718977224","0","","","","","","","",""
"","html-keyboard-response","127","677449","0.0-73.0-1.0","null","<p></p>","null","","","","","","","","","","","","","","","","","","","","","","",""
"","do_trial","128","682866","0.0-74.0-0.0","873.5","","","","","","","","49","0,1,0","0","forest","17","probe-123","0.6000905722094229","0.29308404645081604","0.17093873776629778","0","","","","","","","",""
"","html-keyboard-response","129","683868","0.0-74.0-1.0","null","<p></p>","null","","","","","","","","","","","","","","","","","","","","","","",""
"","do_trial","130","688845","0.0-75.0-0.0","422.90000000596046","","","","","","","","50","1,0,0","0","forest","18","probe-144","0.7149942750037146","0.39957751680572173","0.10167487968797335","0","","","","","","","",""
"","html-keyboard-response","131","689860","0.0-75.0-1.0","null","<p></p>","null","","","","","","","","","","","","","","","","","","","","","","",""
"","do_trial","132","694830","0.0-76.0-0.0","408","","","","","","","","51","0,0,0","0","forest","19","probe-203","0.6521948049222475","0.2842399460184246","0.10891990398852752","0","","","","","","","",""
"","html-keyboard-response","133","695848","0.0-76.0-1.0","null","<p></p>","null","","","","","","","","","","","","","","","","","","","","","","",""
"","do_trial","134","700794","0.0-77.0-0.0","385.7000000178814","","","","","","","","49","1,1,0","0","forest","20","probe-116","0.7279521552547228","0.27023813153442816","0.07186235923188462","1","","","","","","","",""
"","html-keyboard-response","135","701811","0.0-77.0-1.0","null","<p></p>","null","","","","","","","","","","","","","","","","","","","","","","",""
"","do_trial","136","706840","0.0-78.0-0.0","462.7999999821186","","","","","","","","49","0,1,0","0","forest","21","probe-214","0.6481481452245792","0.4181879869093602","0.06261379246042277","0","","","","","","","",""
"","html-keyboard-response","137","707845","0.0-78.0-1.0","null","<p></p>","null","","","","","","","","","","","","","","","","","","","","","","",""
"","do_trial","138","713043","0.0-79.0-0.0","610.7999999821186","","","","","","","","49","1,1,1","0","forest","22","probe-70","0.6403874737077062","0.5643559350570817","0.15970354137345047","1","","","","","","","",""
"","html-keyboard-response","139","714048","0.0-79.0-1.0","null","<p></p>","null","","","","","","","","","","","","","","","","","","","","","","",""
"","do_trial","140","718663","0.0-80.0-0.0","0.20000001788139343","","","","","","","","49","1,1,0","0","forest","23","probe-14","0.6065515330146036","0.4882988161062148","0.10342374849716725","1","","","","","","","",""
"","html-keyboard-response","141","719666","0.0-80.0-1.0","null","<p></p>","null","","","","","","","","","","","","","","","","","","","","","","",""
"","do_trial","142","724669","0.0-81.0-0.0","419.30000001192093","","","","","","","","49","1,0,0","0","forest","24","probe-35","0.4505649126870023","0.3107547070660322","0.1253250795194069","1","","","","","","","",""
"","html-keyboard-response","143","725673","0.0-81.0-1.0","null","<p></p>","null","","","","","","","","","","","","","","","","","","","","","","",""
"","do_trial","144","730649","0.0-82.0-0.0","378.59999999403954","","","","","","","","49","0,0,1","0","forest","25","probe-100","0.3798213511666755","0.28097881520088136","0.153588641006503","0","","","","","","","",""
"","html-keyboard-response","145","731667","0.0-82.0-1.0","null","<p></p>","null","","","","","","","","","","","","","","","","","","","","","","",""
"","do_trial","146","736617","0.0-83.0-0.0","377.2000000178814","","","","","","","","49","0,0,0","0","forest","26","probe-227","0.5149882447033514","0.2016260699585685","0.1949369028907072","0","","","","","","","",""
"","html-keyboard-response","147","737630","0.0-83.0-1.0","null","<p></p>","null","","","","","","","","","","","","","","","","","","","","","","",""
"","do_trial","148","742577","0.0-84.0-0.0","394.09999999403954","","","","","","","","50","1,0,1","0","forest","27","probe-85","0.48113507525237126","0.2037219492914515","0.18341609579242726","0","","","","","","","",""
"","html-keyboard-response","149","743581","0.0-84.0-1.0","null","<p></p>","null","","","","","","","","","","","","","","","","","","","","","","",""
"","do_trial","150","748588","0.0-85.0-0.0","399.10000002384186","","","","","","","","49","0,1,1","0","forest","28","probe-147","0.5623482910553378","0.36132811888516064","0.18678206743585452","0","","","","","","","",""
"","html-keyboard-response","151","749594","0.0-85.0-1.0","null","<p></p>","null","","","","","","","","","","","","","","","","","","","","","","",""
"","do_trial","152","754649","0.0-86.0-0.0","416.60000002384186","","","","","","","","50","0,1,0","0","forest","29","probe-165","0.6768518166643304","0.4052126224119006","0.1782997295688956","1","","","","","","","",""
"","html-keyboard-response","153","755652","0.0-86.0-1.0","null","<p></p>","null","","","","","","","","","","","","","","","","","","","","","","",""
"","do_bye","154","757172","0.0-87.0-0.0","null","","","","","","","","null","","","","","","","","","","","","","","","","",""
"","break","155","760187","0.0-87.0-1.0","3012.699999988079","<div class='center'><p>Time to take a quick break! You have 2 minutes to rest, but you can move on sooner if you'd like.</p><p> Press the <b>space bar</b> to continue.</p></div>","32","","","","","","","","","","","","","","","","","","","","","","",""
"","do_travel","156","769197","0.0-88.0-0.0","null","","","","","","","","null","","","","","","","","","","","","","","","","",""
"","do_welcome","157","773214","0.0-88.0-1.0","null","","","","","","","","null","","","","","","","","","","","","","","","","",""
"","do_trial","158","779859","0.0-89.0-0.0","2058.9000000059605","","","","","","","","49","1,0,0","1","highway","30","probe-224","1","0.2803892140495475","0.12449044281680922","1","","","","","","","",""
"","html-keyboard-response","159","780874","0.0-89.0-1.0","null","<p></p>","null","","","","","","","","","","","","","","","","","","","","","","",""
"","do_trial","160","785853","0.0-90.0-0.0","416","","","","","","","","49","1,0,0","1","highway","31","probe-181","1","0.29692306909472443","0.2772934643070925","1","","","","","","","",""
"","html-keyboard-response","161","786872","0.0-90.0-1.0","null","<p></p>","null","","","","","","","","","","","","","","","","","","","","","","",""
"","do_trial","162","791894","0.0-91.0-0.0","425.40000000596046","","","","","","","","49","1,0,0","1","highway","32","probe-02","1","0.25867146052381323","0.1527399133709659","1","","","","","","","",""
"","html-keyboard-response","163","792900","0.0-91.0-1.0","null","<p></p>","null","","","","","","","","","","","","","","","","","","","","","","",""
"","do_trial","164","797939","0.0-92.0-0.0","479.7999999821186","","","","","","","","49","1,1,1","1","highway","33","probe-122","0.9435844788530376","0.32502765728179817","0.181672364399459","1","","","","","","","",""
"","html-keyboard-response","165","798942","0.0-92.0-1.0","null","<p></p>","null","","","","","","","","","","","","","","","","","","","","","","",""
"","do_trial","166","804033","0.0-93.0-0.0","488.59999999403954","","","","","","","","49","1,0,0","1","highway","34","probe-196","0.8116844618975086","0.2991374687627727","0.163690129594556","1","","","","","","","",""
"","html-keyboard-response","167","805040","0.0-93.0-1.0","null","<p></p>","null","","","","","","","","","","","","","","","","","","","","","","",""
"","do_trial","168","810219","0.0-94.0-0.0","561.2000000178814","","","","","","","","49","0,0,0","1","highway","35","probe-185","0.554990094912829","0.37874937337445164","0.2350708779307137","0","","","","","","","",""
"","html-keyboard-response","169","811224","0.0-94.0-1.0","null","<p></p>","null","","","","","","","","","","","","","","","","","","","","","","",""
"","do_trial","170","816253","0.0-95.0-0.0","416.90000000596046","","","","","","","","50","1,0,0","1","highway","36","probe-186","0.6721884151272536","0.24054233028430602","0.2923025736362388","0","","","","","","","",""
"","html-keyboard-response","171","817256","0.0-95.0-1.0","null","<p></p>","null","","","","","","","","","","","","","","","","","","","","","","",""
"","do_trial","172","821809","0.0-96.0-0.0","4.5","","","","","","","","51","0,0,0","1","highway","37","probe-111","0.6212718712092267","0.39416175947333615","0.18898954398266896","0","","","","","","","",""
"","html-keyboard-response","173","822827","0.0-96.0-1.0","null","<p></p>","null","","","","","","","","","","","","","","","","","","","","","","",""
"","do_trial","174","827578","0.0-97.0-0.0","159.5","","","","","","","","50","1,0,0","1","highway","38","probe-61","0.7094264514728283","0.3723783394496817","0.07854548881857885","0","","","","","","","",""
"","html-keyboard-response","175","828581","0.0-97.0-1.0","null","<p></p>","null","","","","","","","","","","","","","","","","","","","","","","",""
"","do_trial","176","833200","0.0-98.0-0.0","0.09999999403953552","","","","","","","","51","1,1,0","1","highway","39","probe-87","0.7276222028596169","0.3833397692484269","0.05380141523541869","0","","","","","","","",""
"","html-keyboard-response","177","834219","0.0-98.0-1.0","null","<p></p>","null","","","","","","","","","","","","","","","","","","","","","","",""
"","do_trial","178","839178","0.0-99.0-0.0","347.10000002384186","","","","","","","","51","1,1,0","1","highway","40","probe-34","0.6463689884310934","0.4663234261517991","0.06227003192944381","0","","","","","","","",""
"","html-keyboard-response","179","840188","0.0-99.0-1.0","null","<p></p>","null","","","","","","","","","","","","","","","","","","","","","","",""
"","do_trial","180","844891","0.0-100.0-0.0","94.40000000596046","","","","","","","","49","1,1,1","1","highway","41","probe-212","0.6106294840008621","0.5036799044488598","0.13732697558427875","1","","","","","","","",""
"","html-keyboard-response","181","845895","0.0-100.0-1.0","null","<p></p>","null","","","","","","","","","","","","","","","","","","","","","","",""
"","do_trial","182","850559","0.0-101.0-0.0","72.09999999403954","","","","","","","","49","0,1,1","1","highway","42","probe-84","0.4071267947951732","0.4309954130440613","0.5118814536215327","0","","","","","","","",""
"","html-keyboard-response","183","851577","0.0-101.0-1.0","null","<p></p>","null","","","","","","","","","","","","","","","","","","","","","","",""
"","do_trial","184","856147","0.0-102.0-0.0","14.299999982118607","","","","","","","","49","0,0,0","1","highway","43","probe-141","0.36754322918849164","0.2793160647086425","0.5355743348011289","0","","","","","","","",""
"","html-keyboard-response","185","857153","0.0-102.0-1.0","null","<p></p>","null","","","","","","","","","","","","","","","","","","","","","","",""
"","do_trial","186","861743","0.0-103.0-0.0","0.09999999403953552","","","","","","","","50","0,0,1","1","highway","44","probe-211","0.34577957437238604","0.3082033455107522","0.5787495195843505","0","","","","","","","",""
"","html-keyboard-response","187","862761","0.0-103.0-1.0","null","<p></p>","null","","","","","","","","","","","","","","","","","","","","","","",""
"","do_trial","188","868016","0.0-104.0-0.0","657.5","","","","","","","","49","1,0,1","1","highway","45","probe-153","0.2710529570210643","0.4383319792173546","0.7286782589818509","1","","","","","","","",""
"","html-keyboard-response","189","869021","0.0-104.0-1.0","null","<p></p>","null","","","","","","","","","","","","","","","","","","","","","","",""
"","do_trial","190","874512","0.0-105.0-0.0","917","","","","","","","","50","0,0,1","1","highway","46","probe-220","0.1808097940656472","0.36423256675929566","0.6938602466403968","0","","","","","","","",""
"","html-keyboard-response","191","875517","0.0-105.0-1.0","null","<p></p>","null","","","","","","","","","","","","","","","","","","","","","","",""
"","do_trial","192","880109","0.0-106.0-0.0","0.19999998807907104","","","","","","","","51","0,0,1","1","highway","47","probe-47","0.10890580734676121","0.3686918431326452","0.718748041169565","1","","","","","","","",""
"","html-keyboard-response","193","881110","0.0-106.0-1.0","null","<p></p>","null","","","","","","","","","","","","","","","","","","","","","","",""
"","do_trial","194","887218","0.0-107.0-0.0","null","","","","","","","","null","0,0,1","1","highway","48","probe-229","0.13424317690667306","0.3710484852015995","0.8936383141045863","","","","","","","","",""
"","html-keyboard-response","195","888228","0.0-107.0-1.0","null","<p></p>","null","","","","","","","","","","","","","","","","","","","","","","",""
"","do_trial","196","893405","0.0-108.0-0.0","616.9000000059605","","","","","","","","50","0,0,1","1","highway","49","probe-178","0.174901614685446","0.2511209754622742","0.9308140027534474","0","","","","","","","",""
"","html-keyboard-response","197","894409","0.0-108.0-1.0","null","<p></p>","null","","","","","","","","","","","","","","","","","","","","","","",""
"","do_trial","198","900738","0.0-109.0-0.0","1745.800000011921","","","","","","","","50","1,0,0","1","highway","50","probe-33","0.36182828725456595","0.2955134967873115","0.7688639228053077","0","","","","","","","",""
"","html-keyboard-response","199","901746","0.0-109.0-1.0","null","<p></p>","null","","","","","","","","","","","","","","","","","","","","","","",""
"","do_trial","200","907130","0.0-110.0-0.0","807.5","","","","","","","","49","0,0,0","1","highway","51","probe-44","0.30345972338194904","0.241391964889784","0.6327811816723086","0","","","","","","","",""
"","html-keyboard-response","201","908135","0.0-110.0-1.0","null","<p></p>","null","","","","","","","","","","","","","","","","","","","","","","",""
"","do_trial","202","912860","0.0-111.0-0.0","153.59999999403954","","","","","","","","51","1,1,0","1","highway","52","probe-193","0.34116770899237964","0.30355803078984644","0.57192710167208","0","","","","","","","",""
"","html-keyboard-response","203","913866","0.0-111.0-1.0","null","<p></p>","null","","","","","","","","","","","","","","","","","","","","","","",""
"","do_trial","204","918863","0.0-112.0-0.0","416.5","","","","","","","","51","1,0,1","1","highway","53","probe-09","0.3018309333042104","0.3620658847303674","0.6408562284495938","1","","","","","","","",""
"","html-keyboard-response","205","919872","0.0-112.0-1.0","null","<p></p>","null","","","","","","","","","","","","","","","","","","","","","","",""
"","do_trial","206","925155","0.0-113.0-0.0","701.5999999940395","","","","","","","","50","0,0,1","1","highway","54","probe-23","0.21550282221986172","0.4200772998159139","0.6775005520297905","0","","","","","","","",""
"","html-keyboard-response","207","926161","0.0-113.0-1.0","null","<p></p>","null","","","","","","","","","","","","","","","","","","","","","","",""
"","do_trial","208","931114","0.0-114.0-0.0","333.19999998807907","","","","","","","","51","0,0,1","1","highway","55","probe-146","0.17862362267014334","0.207895793054814","0.6633632558660016","1","","","","","","","",""
"","html-keyboard-response","209","932120","0.0-114.0-1.0","null","<p></p>","null","","","","","","","","","","","","","","","","","","","","","","",""
"","do_trial","210","936883","0.0-115.0-0.0","131.59999999403954","","","","","","","","51","0,0,0","1","highway","56","probe-118","0.1661715444641528","0.3101284836365565","0.5551878917381631","0","","","","","","","",""
"","html-keyboard-response","211","937889","0.0-115.0-1.0","null","<p></p>","null","","","","","","","","","","","","","","","","","","","","","","",""
"","do_trial","212","942489","0.0-116.0-0.0","10.400000005960464","","","","","","","","50","0,0,0","1","highway","57","probe-53","0.16110446444835083","0.2815882615243768","0.5652138093720012","0","","","","","","","",""
"","html-keyboard-response","213","943496","0.0-116.0-1.0","null","<p></p>","null","","","","","","","","","","","","","","","","","","","","","","",""
"","do_trial","214","949165","0.0-117.0-0.0","1052","","","","","","","","51","0,0,1","1","highway","58","probe-39","0.0693093863601041","0.30224300360162976","0.7521253728702426","1","","","","","","","",""
"","html-keyboard-response","215","950168","0.0-117.0-1.0","null","<p></p>","null","","","","","","","","","","","","","","","","","","","","","","",""
"","do_trial","216","955245","0.0-118.0-0.0","521.5","","","","","","","","51","0,1,1","1","highway","59","probe-205","0.12559815366767704","0.38013192060221784","0.7092383393064928","1","","","","","","","",""
"","html-keyboard-response","217","956263","0.0-118.0-1.0","null","<p></p>","null","","","","","","","","","","","","","","","","","","","","","","",""
"","do_trial","218","960943","0.0-119.0-0.0","52.80000001192093","","","","","","","","49","0,1,1","1","highway","60","probe-69","0.07217036744704579","0.390342490988851","0.7432649590863813","0","","","","","","","",""
"","html-keyboard-response","219","961947","0.0-119.0-1.0","null","<p></p>","null","","","","","","","","","","","","","","","","","","","","","","",""
"","do_trial","220","966888","0.0-120.0-0.0","366.30000001192093","","","","","","","","50","0,1,1","1","highway","61","probe-46","0.11075927294871084","0.30209280909214953","0.710770940269506","1","","","","","","","",""
"","html-keyboard-response","221","967895","0.0-120.0-1.0","null","<p></p>","null","","","","","","","","","","","","","","","","","","","","","","",""
"","do_trial","222","972471","0.0-121.0-0.0","24.599999994039536","","","","","","","","50","0,0,1","1","highway","62","probe-36","0.06058209471860505","0.24587917008172877","0.6653927457627217","0","","","","","","","",""
"","html-keyboard-response","223","973476","0.0-121.0-1.0","null","<p></p>","null","","","","","","","","","","","","","","","","","","","","","","",""
"","do_trial","224","979071","0.0-122.0-0.0","1014.6999999880791","","","","","","","","51","0,0,0","1","highway","63","probe-176","0.1536072527196288","0.3345172829390663","0.6690577682464757","0","","","","","","","",""
"","html-keyboard-response","225","980074","0.0-122.0-1.0","null","<p></p>","null","","","","","","","","","","","","","","","","","","","","","","",""
"","do_trial","226","984680","0.0-123.0-0.0","0.10000002384185791","","","","","","","","50","0,0,1","1","highway","64","probe-148","0.12073903839392643","0.2825341906468837","0.7744389411066759","0","","","","","","","",""
"","html-keyboard-response","227","985686","0.0-123.0-1.0","null","<p></p>","null","","","","","","","","","","","","","","","","","","","","","","",""
"","do_trial","228","990561","0.0-124.0-0.0","270.09999999403954","","","","","","","","50","0,0,1","1","highway","65","probe-98","0.11693306794766833","0.2609013542481482","0.7551165160100116","0","","","","","","","",""
"","html-keyboard-response","229","991579","0.0-124.0-1.0","null","<p></p>","null","","","","","","","","","","","","","","","","","","","","","","",""
"","do_trial","230","996172","0.0-125.0-0.0","0.09999999403953552","","","","","","","","49","0,1,1","1","highway","66","probe-18","0.2477597940950696","0.3303702469898947","0.7202462825041117","0","","","","","","","",""
"","html-keyboard-response","231","997183","0.0-125.0-1.0","null","<p></p>","null","","","","","","","","","","","","","","","","","","","","","","",""
"","do_trial","232","1002234","0.0-126.0-0.0","491.40000000596046","","","","","","","","51","0,0,1","1","highway","67","probe-22","0.1678499154280052","0.3930056494357715","0.7436688248997422","1","","","","","","","",""
"","html-keyboard-response","233","1003252","0.0-126.0-1.0","null","<p></p>","null","","","","","","","","","","","","","","","","","","","","","","",""
"","do_trial","234","1009659","0.0-127.0-0.0","1855.5","","","","","","","","50","0,0,1","1","highway","68","probe-59","0.17933736411508888","0.3773732687015637","0.7961524419818617","0","","","","","","","",""
"","html-keyboard-response","235","1010667","0.0-127.0-1.0","null","<p></p>","null","","","","","","","","","","","","","","","","","","","","","","",""
"","do_trial","236","1017623","0.0-128.0-0.0","2357.9000000059605","","","","","","","","51","0,0,1","1","highway","69","probe-164","0.22187453116884978","0.2889639741419587","0.7305081031765976","1","","","","","","","",""
"","html-keyboard-response","237","1018628","0.0-128.0-1.0","null","<p></p>","null","","","","","","","","","","","","","","","","","","","","","","",""
"","do_bye","238","1020154","0.0-129.0-0.0","null","","","","","","","","null","","","","","","","","","","","","","","","","",""
"","break","239","1021567","0.0-129.0-1.0","1410.7000000178814","<div class='center'><p>Time to take a quick break! You have 2 minutes to rest, but you can move on sooner if you'd like.</p><p> Press the <b>space bar</b> to continue.</p></div>","32","","","","","","","","","","","","","","","","","","","","","","",""
"","do_travel","240","1030583","0.0-130.0-0.0","null","","","","","","","","null","","","","","","","","","","","","","","","","",""
"","do_welcome","241","1034605","0.0-130.0-1.0","null","","","","","","","","null","","","","","","","","","","","","","","","","",""
"","do_trial","242","1040964","0.0-131.0-0.0","1771","","","","","","","","49","0,0,1","2","coast","70","probe-191","0.2267826785729416","0.2609655884157009","1","0","","","","","","","",""
"","html-keyboard-response","243","1041969","0.0-131.0-1.0","null","<p></p>","null","","","","","","","","","","","","","","","","","","","","","","",""
"","do_trial","244","1046559","0.0-132.0-0.0","0.09999999403953552","","","","","","","","51","0,0,1","2","coast","71","probe-13","0.09082407855078445","0.253902111607341","1","1","","","","","","","",""
"","html-keyboard-response","245","1047565","0.0-132.0-1.0","null","<p></p>","null","","","","","","","","","","","","","","","","","","","","","","",""
"","do_trial","246","1052184","0.0-133.0-0.0","0.09999999403953552","","","","","","","","51","0,0,1","2","coast","72","probe-97","0.15344175277723943","0.21833113098400422","0.8673242827665835","1","","","","","","","",""
"","html-keyboard-response","247","1053189","0.0-133.0-1.0","null","<p></p>","null","","","","","","","","","","","","","","","","","","","","","","",""
"","do_trial","248","1058479","0.0-134.0-0.0","695","","","","","","","","51","0,0,0","2","coast","73","probe-68","0.21397778064129142","0.34927432357349814","0.7402550774819088","0","","","","","","","",""
"","html-keyboard-response","249","1059482","0.0-134.0-1.0","null","<p></p>","null","","","","","","","","","","","","","","","","","","","","","","",""
"","do_trial","250","1064446","0.0-135.0-0.0","404.40000000596046","","","","","","","","50","0,0,0","2","coast","74","probe-49","0.21565615586361675","0.12589245164829843","0.7798723674392752","0","","","","","","","",""
"","html-keyboard-response","251","1065449","0.0-135.0-1.0","null","<p></p>","null","","","","","","","","","","","","","","","","","","","","","","",""
"","do_trial","252","1070278","0.0-136.0-0.0","239.89999997615814","","","","","","","","51","0,0,1","2","coast","75","probe-112","0.10355428553440671","0.19183153841048675","0.9008615722816755","1","","","","","","","",""
"","html-keyboard-response","253","1071285","0.0-136.0-1.0","null","<p></p>","null","","","","","","","","","","","","","","","","","","","","","","",""
"","do_trial","254","1076182","0.0-137.0-0.0","283.40000000596046","","","","","","","","50","1,0,1","2","coast","76","probe-57","0.09995139414183969","0.3339986630482203","0.7901592629375205","0","","","","","","","",""
"","html-keyboard-response","255","1077189","0.0-137.0-1.0","null","<p></p>","null","","","","","","","","","","","","","","","","","","","","","","",""
"","do_trial","256","1081933","0.0-138.0-0.0","156.40000000596046","","","","","","","","49","0,0,0","2","coast","77","probe-96","0.12422374604264409","0.1814420722676649","0.6890682996778331","0","","","","","","","",""
"","html-keyboard-response","257","1082950","0.0-138.0-1.0","null","<p></p>","null","","","","","","","","","","","","","","","","","","","","","","",""
"","do_trial","258","1088307","0.0-139.0-0.0","741","","","","","","","","51","0,1,1","2","coast","78","probe-173","0.1287779432168953","0.1537230239639224","0.6022011630616383","1","","","","","","","",""
"","html-keyboard-response","259","1089322","0.0-139.0-1.0","null","<p></p>","null","","","","","","","","","","","","","","","","","","","","","","",""
"","do_trial","260","1094287","0.0-140.0-0.0","346.7000000178814","","","","","","","","51","0,0,1","2","coast","79","probe-95","0.09458563984941944","0.29295838018879017","0.691250137509864","1","","","","","","","",""
"","html-keyboard-response","261","1095292","0.0-140.0-1.0","null","<p></p>","null","","","","","","","","","","","","","","","","","","","","","","",""
"","do_trial","262","1100680","0.0-141.0-0.0","790","","","","","","","","51","1,0,1","2","coast","80","probe-114","0.0920961876975667","0.2269008004927433","0.6820450585235858","1","","","","","","","",""
"","html-keyboard-response","263","1101683","0.0-141.0-1.0","null","<p></p>","null","","","","","","","","","","","","","","","","","","","","","","",""
"","do_trial","264","1107920","0.0-142.0-0.0","1640.0999999940395","","","","","","","","51","0,0,0","2","coast","81","probe-77","0.21500968428611944","0.15874008458852948","0.632064760094767","0","","","","","","","",""
"","html-keyboard-response","265","1108924","0.0-142.0-1.0","null","<p></p>","null","","","","","","","","","","","","","","","","","","","","","","",""
"","do_trial","266","1115375","0.0-143.0-0.0","1837.0999999940395","","","","","","","","50","1,0,0","2","coast","82","probe-175","0.4290645240919514","0.07738130976470668","0.5566929878779611","0","","","","","","","",""
"","html-keyboard-response","267","1116381","0.0-143.0-1.0","null","<p></p>","null","","","","","","","","","","","","","","","","","","","","","","",""
"","do_trial","268","1121442","0.0-144.0-0.0","437.5","","","","","","","","49","1,0,1","2","coast","83","probe-137","0.5170953166432516","0.07873078241904961","0.5743820584857486","1","","","","","","","",""
"","html-keyboard-response","269","1122445","0.0-144.0-1.0","null","<p></p>","null","","","","","","","","","","","","","","","","","","","","","","",""
"","do_trial","270","1127594","0.0-145.0-0.0","546.5999999940395","","","","","","","","49","1,0,0","2","coast","84","probe-198","0.40950998741011085","0.12926985567279212","0.49183894326306254","1","","","","","","","",""
"","html-keyboard-response","271","1128612","0.0-145.0-1.0","null","<p></p>","null","","","","","","","","","","","","","","","","","","","","","","",""
"","do_trial","272","1133262","0.0-146.0-0.0","43.80000001192093","","","","","","","","49","0,0,0","2","coast","85","probe-32","0.45619286926462643","0.08926686640645701","0.3475813460873126","0","","","","","","","",""
"","html-keyboard-response","273","1134265","0.0-146.0-1.0","null","<p></p>","null","","","","","","","","","","","","","","","","","","","","","","",""
"","do_trial","274","1139538","0.0-147.0-0.0","677.1999999880791","","","","","","","","51","1,0,1","2","coast","86","probe-177","0.7172287219518347","0.11612061120099154","0.2934344668788954","1","","","","","","","",""
"","html-keyboard-response","275","1140542","0.0-147.0-1.0","null","<p></p>","null","","","","","","","","","","","","","","","","","","","","","","",""
"","do_trial","276","1145839","0.0-148.0-0.0","705.1000000238419","","","","","","","","50","1,0,0","2","coast","87","probe-113","0.7110352577414583","0.14411529937560033","0.27518125650391395","0","","","","","","","",""
"","html-keyboard-response","277","1146843","0.0-148.0-1.0","null","<p></p>","null","","","","","","","","","","","","","","","","","","","","","","",""
"","do_trial","278","1152482","0.0-149.0-0.0","1075.199999988079","","","","","","","","51","1,0,0","2","coast","88","probe-20","0.6341185809470494","0.2531721423674428","0.3774599803118868","0","","","","","","","",""
"","html-keyboard-response","279","1153488","0.0-149.0-1.0","null","<p></p>","null","","","","","","","","","","","","","","","","","","","","","","",""
"","do_trial","280","1158579","0.0-150.0-0.0","508.59999999403954","","","","","","","","50","1,0,1","2","coast","89","probe-188","0.6230040361082909","0.1423914557016526","0.35001503679264234","0","","","","","","","",""
"","html-keyboard-response","281","1159583","0.0-150.0-1.0","null","<p></p>","null","","","","","","","","","","","","","","","","","","","","","","",""
"","do_trial","282","1166339","0.0-151.0-0.0","2141.9000000059605","","","","","","","","51","1,0,0","2","coast","90","probe-169","0.5855151539701936","0.17370448424798732","0.3812841664147144","0","","","","","","","",""
"","html-keyboard-response","283","1167344","0.0-151.0-1.0","null","<p></p>","null","","","","","","","","","","","","","","","","","","","","","","",""
"","do_trial","284","1172764","0.0-152.0-0.0","816.2000000178814","","","","","","","","50","1,0,1","2","coast","91","probe-05","0.6616256598523104","0.2156672165697614","0.3876611589115444","0","","","","","","","",""
"","html-keyboard-response","285","1173775","0.0-152.0-1.0","null","<p></p>","null","","","","","","","","","","","","","","","","","","","","","","",""
"","do_trial","286","1179620","0.0-153.0-0.0","1239.4000000059605","","","","","","","","50","1,0,0","2","coast","92","probe-103","0.7158211783032633","0.29611196942692225","0.3521996948388412","0","","","","","","","",""
"","html-keyboard-response","287","1180624","0.0-153.0-1.0","null","<p></p>","null","","","","","","","","","","","","","","","","","","","","","","",""
"","do_trial","288","1185935","0.0-154.0-0.0","710.4000000059605","","","","","","","","50","1,0,0","2","coast","93","probe-167","0.8202527373450914","0.23536277367226646","0.42837813401604585","0","","","","","","","",""
"","html-keyboard-response","289","1186941","0.0-154.0-1.0","null","<p></p>","null","","","","","","","","","","","","","","","","","","","","","","",""
"","do_trial","290","1191548","0.0-155.0-0.0","0.19999998807907104","","","","","","","","51","1,0,1","2","coast","94","probe-94","0.7150753150324242","0.2076762274342734","0.3552919080812818","1","","","","","","","",""
"","html-keyboard-response","291","1192556","0.0-155.0-1.0","null","<p></p>","null","","","","","","","","","","","","","","","","","","","","","","",""
"","do_trial","292","1197635","0.0-156.0-0.0","455.59999999403954","","","","","","","","51","1,0,1","2","coast","95","probe-145","0.5412886668432908","0.17339072621111512","0.3170554587613549","1","","","","","","","",""
"","html-keyboard-response","293","1198639","0.0-156.0-1.0","null","<p></p>","null","","","","","","","","","","","","","","","","","","","","","","",""
"","do_trial","294","1203231","0.0-157.0-0.0","2.5","","","","","","","","51","0,0,1","2","coast","96","probe-108","0.39437146298239667","0.05165494707185916","0.4149111645043131","1","","","","","","","",""
"","html-keyboard-response","295","1204236","0.0-157.0-1.0","null","<p></p>","null","","","","","","","","","","","","","","","","","","","","","","",""
"","do_trial","296","1209283","0.0-158.0-0.0","460.39999997615814","","","","","","","","51","0,0,0","2","coast","97","probe-166","0.46877122565532975","0.16644959267900775","0.317517061607703","0","","","","","","","",""
"","html-keyboard-response","297","1210288","0.0-158.0-1.0","null","<p></p>","null","","","","","","","","","","","","","","","","","","","","","","",""
"","do_trial","298","1215402","0.0-159.0-0.0","516.1999999880791","","","","","","","","49","0,0,0","2","coast","98","probe-115","0.48979380388440164","0.0695914456448806","0.2510134594099611","0","","","","","","","",""
"","html-keyboard-response","299","1216419","0.0-159.0-1.0","null","<p></p>","null","","","","","","","","","","","","","","","","","","","","","","",""
"","do_trial","300","1223753","0.0-160.0-0.0","2775","","","","","","","","49","0,0,0","2","coast","99","probe-56","0.5829574570964957","0.13146700302726136","0.329158085383276","0","","","","","","","",""
"","html-keyboard-response","301","1224771","0.0-160.0-1.0","null","<p></p>","null","","","","","","","","","","","","","","","","","","","","","","",""
"","do_trial","302","1230190","0.0-161.0-0.0","839.7000000178814","","","","","","","","50","1,0,0","2","coast","100","probe-63","0.7092483074300427","0.18244356859415065","0.391538218409157","0","","","","","","","",""
"","html-keyboard-response","303","1231195","0.0-161.0-1.0","null","<p></p>","null","","","","","","","","","","","","","","","","","","","","","","",""
"","do_trial","304","1237259","0.0-162.0-0.0","null","","","","","","","","null","1,0,1","2","coast","101","probe-180","0.604551995407977","0.1448587190167195","0.4083991340986236","","","","","","","","",""
"","html-keyboard-response","305","1238266","0.0-162.0-1.0","null","<p></p>","null","","","","","","","","","","","","","","","","","","","","","","",""
"","do_trial","306","1243087","0.0-163.0-0.0","269.90000000596046","","","","","","","","51","0,0,0","2","coast","102","probe-218","0.6633716640950696","0.14994647271760808","0.3335244866641363","0","","","","","","","",""
"","html-keyboard-response","307","1244092","0.0-163.0-1.0","null","<p></p>","null","","","","","","","","","","","","","","","","","","","","","","",""
"","do_trial","308","1249889","0.0-164.0-0.0","1189.7000000178814","","","","","","","","50","0,0,1","2","coast","103","probe-08","0.6343229527204176","0.17795619157258696","0.3465992095688789","0","","","","","","","",""
"","html-keyboard-response","309","1250897","0.0-164.0-1.0","null","<p></p>","null","","","","","","","","","","","","","","","","","","","","","","",""
"","do_trial","310","1255599","0.0-165.0-0.0","100.7000000178814","","","","","","","","51","1,0,0","2","coast","104","probe-74","0.4741045863709036","0.23585532106135979","0.2927088807767787","0","","","","","","","",""
"","html-keyboard-response","311","1256605","0.0-165.0-1.0","null","<p></p>","null","","","","","","","","","","","","","","","","","","","","","","",""
"","do_trial","312","1261204","0.0-166.0-0.0","0.20000001788139343","","","","","","","","49","0,1,0","2","coast","105","probe-38","0.523488938316066","0.18189302608482996","0.3610638148813501","0","","","","","","","",""
"","html-keyboard-response","313","1262207","0.0-166.0-1.0","null","<p></p>","null","","","","","","","","","","","","","","","","","","","","","","",""
"","do_trial","314","1267476","0.0-167.0-0.0","689.2999999821186","","","","","","","","50","1,1,0","2","coast","106","probe-54","0.7048327625939631","0.27344011051523387","0.18170057011149163","1","","","","","","","",""
"","html-keyboard-response","315","1268482","0.0-167.0-1.0","null","<p></p>","null","","","","","","","","","","","","","","","","","","","","","","",""
"","do_trial","316","1274151","0.0-168.0-0.0","1067.6000000238419","","","","","","","","50","1,0,0","2","coast","107","probe-26","0.8437364880591011","0.09435758247666128","0.3367211638214039","0","","","","","","","",""
"","html-keyboard-response","317","1275154","0.0-168.0-1.0","null","<p></p>","null","","","","","","","","","","","","","","","","","","","","","","",""
"","do_trial","318","1279835","0.0-169.0-0.0","79.19999998807907","","","","","","","","51","1,0,1","2","coast","108","probe-37","0.828728916328905","0.10676718526258626","0.27709225925699443","1","","","","","","","",""
"","html-keyboard-response","319","1280838","0.0-169.0-1.0","null","<p></p>","null","","","","","","","","","","","","","","","","","","","","","","",""
"","do_trial","320","1286698","0.0-170.0-0.0","1280.0999999940395","","","","","","","","49","1,0,0","2","coast","109","probe-65","0.801802926267337","0.10344562844478608","0.2285628619431369","1","","","","","","","",""
"","html-keyboard-response","321","1287701","0.0-170.0-1.0","null","<p></p>","null","","","","","","","","","","","","","","","","","","","","","","",""
"","do_bye","322","1289222","0.0-171.0-0.0","null","","","","","","","","null","","","","","","","","","","","","","","","","",""
"","break","323","1291108","0.0-171.0-1.0","1883.5999999940395","<div class='center'><p>Time to take a quick break! You have 2 minutes to rest, but you can move on sooner if you'd like.</p><p> Press the <b>space bar</b> to continue.</p></div>","32","","","","","","","","","","","","","","","","","","","","","","",""
"","do_travel","324","1300122","0.0-172.0-0.0","null","","","","","","","","null","","","","","","","","","","","","","","","","",""
"","do_welcome","325","1304150","0.0-172.0-1.0","null","","","","","","","","null","","","","","","","","","","","","","","","","",""
"","do_trial","326","1310309","0.0-173.0-0.0","1570.199999988079","","","","","","","","49","1,0,0","3","mountain","110","probe-195","1","0.07929221657513966","0.16095433664991718","1","","","","","","","",""
"","html-keyboard-response","327","1311314","0.0-173.0-1.0","null","<p></p>","null","","","","","","","","","","","","","","","","","","","","","","",""
"","do_trial","328","1316695","0.0-174.0-0.0","805.0999999940395","","","","","","","","49","1,0,0","3","mountain","111","probe-82","1","0.14459363755889101","0.2526514607910491","1","","","","","","","",""
"","html-keyboard-response","329","1317700","0.0-174.0-1.0","null","<p></p>","null","","","","","","","","","","","","","","","","","","","","","","",""
"","do_trial","330","1322898","0.0-175.0-0.0","635.5","","","","","","","","49","1,1,1","3","mountain","112","probe-10","0.8074115818867176","0.07434321425380558","0.37654461310201087","1","","","","","","","",""
"","html-keyboard-response","331","1323913","0.0-175.0-1.0","null","<p></p>","null","","","","","","","","","","","","","","","","","","","","","","",""
"","do_trial","332","1328638","0.0-176.0-0.0","138.7000000178814","","","","","","","","49","0,1,0","3","mountain","113","probe-62","0.7060434453717475","0.21470332759255276","0.40015656404194816","0","","","","","","","",""
"","html-keyboard-response","333","1329642","0.0-176.0-1.0","null","<p></p>","null","","","","","","","","","","","","","","","","","","","","","","",""
"","do_trial","334","1334483","0.0-177.0-0.0","276.90000000596046","","","","","","","","51","1,0,0","3","mountain","114","probe-15","0.6209169816422871","0.11551037793977444","0.3685540141922416","0","","","","","","","",""
"","html-keyboard-response","335","1335490","0.0-177.0-1.0","null","<p></p>","null","","","","","","","","","","","","","","","","","","","","","","",""
"","do_trial","336","1340096","0.0-178.0-0.0","33","","","","","","","","51","1,0,1","3","mountain","115","probe-129","0.6542359916983136","0.07242419804953892","0.3778564877371271","1","","","","","","","",""
"","html-keyboard-response","337","1341102","0.0-178.0-1.0","null","<p></p>","null","","","","","","","","","","","","","","","","","","","","","","",""
"","do_trial","338","1345828","0.0-179.0-0.0","108.69999998807907","","","","","","","","51","1,0,0","3","mountain","116","probe-30","0.7839815222890241","0.07113879935771547","0.23943282701366386","0","","","","","","","",""
"","html-keyboard-response","339","1346832","0.0-179.0-1.0","null","<p></p>","null","","","","","","","","","","","","","","","","","","","","","","",""
"","do_trial","340","1351454","0.0-180.0-0.0","22.399999976158142","","","","","","","","50","1,0,1","3","mountain","117","probe-160","0.6190532702458389","0.10058522061019151","0.20621950237613998","0","","","","","","","",""
"","html-keyboard-response","341","1352460","0.0-180.0-1.0","null","<p></p>","null","","","","","","","","","","","","","","","","","","","","","","",""
"","do_trial","342","1357284","0.0-181.0-0.0","241.40000000596046","","","","","","","","49","1,0,0","3","mountain","118","probe-157","0.8173876567117663","0.07810930569683953","0.2096232459393024","1","","","","","","","",""
"","html-keyboard-response","343","1358301","0.0-181.0-1.0","null","<p></p>","null","","","","","","","","","","","","","","","","","","","","","","",""
"","do_trial","344","1362984","0.0-182.0-0.0","75.5","","","","","","","","49","1,0,0","3","mountain","119","probe-72","0.6517559625933579","0.15589127810285272","0.2815664447610928","1","","","","","","","",""
"","html-keyboard-response","345","1363989","0.0-182.0-1.0","null","<p></p>","null","","","","","","","","","","","","","","","","","","","","","","",""
"","do_trial","346","1369767","0.0-183.0-0.0","1151.300000011921","","","","","","","","49","1,0,0","3","mountain","120","probe-55","0.6071819152048094","0.13787415954648466","0.3214439355585699","1","","","","","","","",""
"","html-keyboard-response","347","1370771","0.0-183.0-1.0","null","<p></p>","null","","","","","","","","","","","","","","","","","","","","","","",""
"","do_trial","348","1375375","0.0-184.0-0.0","9.199999988079071","","","","","","","","49","1,0,1","3","mountain","121","probe-221","0.6469959840481638","0.23572041855447182","0.2513674693427713","1","","","","","","","",""
"","html-keyboard-response","349","1376382","0.0-184.0-1.0","null","<p></p>","null","","","","","","","","","","","","","","","","","","","","","","",""
"","do_trial","350","1381277","0.0-185.0-0.0","316.5","","","","","","","","49","1,1,0","3","mountain","122","probe-104","0.4849932383943479","0.20246480095343547","0.5292666369618916","1","","","","","","","",""
"","html-keyboard-response","351","1382282","0.0-185.0-1.0","null","<p></p>","null","","","","","","","","","","","","","","","","","","","","","","",""
"","do_trial","352","1387479","0.0-186.0-0.0","642.2999999821186","","","","","","","","49","1,0,1","3","mountain","123","probe-79","0.32404984971593853","0.08336324512549023","0.590036237940585","1","","","","","","","",""
"","html-keyboard-response","353","1388483","0.0-186.0-1.0","null","<p></p>","null","","","","","","","","","","","","","","","","","","","","","","",""
"","do_trial","354","1393108","0.0-187.0-0.0","12.099999994039536","","","","","","","","49","0,0,0","3","mountain","124","probe-67","0.29965202513933403","0.06614262423302734","0.560007728555448","0","","","","","","","",""
"","html-keyboard-response","355","1394112","0.0-187.0-1.0","null","<p></p>","null","","","","","","","","","","","","","","","","","","","","","","",""
"","do_trial","356","1399408","0.0-188.0-0.0","675.4000000059605","","","","","","","","51","0,0,1","3","mountain","125","probe-209","0.2956405228136571","0.08104235330090835","0.43488593860373725","1","","","","","","","",""
"","html-keyboard-response","357","1400412","0.0-188.0-1.0","null","<p></p>","null","","","","","","","","","","","","","","","","","","","","","","",""
"","do_trial","358","1405104","0.0-189.0-0.0","98.90000000596046","","","","","","","","51","0,0,0","3","mountain","126","probe-170","0.3024988718228864","0.05817712102646584","0.3954445844514259","0","","","","","","","",""
"","html-keyboard-response","359","1406119","0.0-189.0-1.0","null","<p></p>","null","","","","","","","","","","","","","","","","","","","","","","",""
"","do_trial","360","1411140","0.0-190.0-0.0","433.19999998807907","","","","","","","","50","0,0,0","3","mountain","127","probe-140","0.31657586999225656","0.06986628894155016","0.40388339974249465","0","","","","","","","",""
"","html-keyboard-response","361","1412143","0.0-190.0-1.0","null","<p></p>","null","","","","","","","","","","","","","","","","","","","","","","",""
"","do_trial","362","1417105","0.0-191.0-0.0","371.09999999403954","","","","","","","","49","1,0,0","3","mountain","128","probe-222","0.38842565487746733","0.05224542074270994","0.4169433406918055","1","","","","","","","",""
"","html-keyboard-response","363","1418109","0.0-191.0-1.0","null","<p></p>","null","","","","","","","","","","","","","","","","","","","","","","",""
"","do_trial","364","1423168","0.0-192.0-0.0","462.19999998807907","","","","","","","","50","1,0,1","3","mountain","129","probe-17","0.29087450356344013","0.12936543037552287","0.421007719319675","0","","","","","","","",""
"","html-keyboard-response","365","1424173","0.0-192.0-1.0","null","<p></p>","null","","","","","","","","","","","","","","","","","","","","","","",""
"","do_trial","366","1428846","0.0-193.0-0.0","47.900000005960464","","","","","","","","51","0,0,0","3","mountain","130","probe-83","0.34977081110475167","0.08484114563771834","0.4631236168255334","0","","","","","","","",""
"","html-keyboard-response","367","1429862","0.0-193.0-1.0","null","<p></p>","null","","","","","","","","","","","","","","","","","","","","","","",""
"","do_trial","368","1434571","0.0-194.0-0.0","116.40000000596046","","","","","","","","49","0,0,0","3","mountain","131","probe-80","0.29851804760936135","0.13620670936159474","0.5695122581455655","0","","","","","","","",""
"","html-keyboard-response","369","1435585","0.0-194.0-1.0","null","<p></p>","null","","","","","","","","","","","","","","","","","","","","","","",""
"","do_trial","370","1441711","0.0-195.0-0.0","null","","","","","","","","null","0,0,1","3","mountain","132","probe-120","0.19271437081232684","0.0851136535851443","0.4994642662272355","","","","","","","","",""
"","html-keyboard-response","371","1442720","0.0-195.0-1.0","null","<p></p>","null","","","","","","","","","","","","","","","","","","","","","","",""
"","do_trial","372","1447304","0.0-196.0-0.0","0.09999999403953552","","","","","","","","51","0,0,1","3","mountain","133","probe-158","0.13990290216516482","0.15216510994325882","0.41484911654471235","1","","","","","","","",""
"","html-keyboard-response","373","1448320","0.0-196.0-1.0","null","<p></p>","null","","","","","","","","","","","","","","","","","","","","","","",""
"","do_trial","374","1453454","0.0-197.0-0.0","581.3000000119209","","","","","","","","51","1,0,1","3","mountain","134","probe-179","0.08580491784749594","0.12914382919943718","0.536640536898207","1","","","","","","","",""
"","html-keyboard-response","375","1454458","0.0-197.0-1.0","null","<p></p>","null","","","","","","","","","","","","","","","","","","","","","","",""
"","do_trial","376","1461087","0.0-198.0-0.0","2032.199999988079","","","","","","","","51","0,0,1","3","mountain","135","probe-27","0.16780108069408436","0.1456056384613132","0.7401063496301566","1","","","","","","","",""
"","html-keyboard-response","377","1462104","0.0-198.0-1.0","null","<p></p>","null","","","","","","","","","","","","","","","","","","","","","","",""
"","do_trial","378","1468310","0.0-199.0-0.0","1608.7000000178814","","","","","","","","51","0,0,0","3","mountain","136","probe-204","0.11192786547061674","0.08352462102413803","0.7203592754338071","0","","","","","","","",""
"","html-keyboard-response","379","1469325","0.0-199.0-1.0","null","<p></p>","null","","","","","","","","","","","","","","","","","","","","","","",""
"","do_trial","380","1474325","0.0-200.0-0.0","437.5","","","","","","","","49","0,0,0","3","mountain","137","probe-132","0.08351478565878029","0.07558703286768996","0.7051507070443436","0","","","","","","","",""
"","html-keyboard-response","381","1475332","0.0-200.0-1.0","null","<p></p>","null","","","","","","","","","","","","","","","","","","","","","","",""
"","do_trial","382","1480057","0.0-201.0-0.0","181.30000001192093","","","","","","","","50","0,0,0","3","mountain","138","probe-213","0.059991102240724334","0.21077647267773333","0.6493628030301167","0","","","","","","","",""
"","html-keyboard-response","383","1481060","0.0-201.0-1.0","null","<p></p>","null","","","","","","","","","","","","","","","","","","","","","","",""
"","do_trial","384","1486052","0.0-202.0-0.0","395.59999999403954","","","","","","","","49","0,0,1","3","mountain","139","probe-149","0.07389033406560305","0.1911408510407349","0.5908781214116668","0","","","","","","","",""
"","html-keyboard-response","385","1487055","0.0-202.0-1.0","null","<p></p>","null","","","","","","","","","","","","","","","","","","","","","","",""
"","do_trial","386","1493183","0.0-203.0-0.0","1540.9000000059605","","","","","","","","50","0,0,1","3","mountain","140","probe-48","0.16340463808504896","0.15470289742837556","0.6469298471758947","0","","","","","","","",""
"","html-keyboard-response","387","1494188","0.0-203.0-1.0","null","<p></p>","null","","","","","","","","","","","","","","","","","","","","","","",""
"","do_trial","388","1500898","0.0-204.0-0.0","2121.9000000059605","","","","","","","","50","0,0,0","3","mountain","141","probe-192","0.20724257650205002","0.19973593190636924","0.5466980193023726","0","","","","","","","",""
"","html-keyboard-response","389","1501902","0.0-204.0-1.0","null","<p></p>","null","","","","","","","","","","","","","","","","","","","","","","",""
"","do_trial","390","1507972","0.0-205.0-0.0","null","","","","","","","","null","0,0,1","3","mountain","142","probe-28","0.3088908622271212","0.1254183838753766","0.48962966901963956","","","","","","","","",""
"","html-keyboard-response","391","1508979","0.0-205.0-1.0","null","<p></p>","null","","","","","","","","","","","","","","","","","","","","","","",""
"","do_trial","392","1514135","0.0-206.0-0.0","559","","","","","","","","49","0,0,0","3","mountain","143","probe-126","0.3363726769332356","0.13679202215851574","0.5243479673549942","0","","","","","","","",""
"","html-keyboard-response","393","1515149","0.0-206.0-1.0","null","<p></p>","null","","","","","","","","","","","","","","","","","","","","","","",""
"","do_trial","394","1520380","0.0-207.0-0.0","634.9000000059605","","","","","","","","49","1,0,0","3","mountain","144","probe-134","0.40763746497580444","0.16048288662493715","0.4744678288051273","1","","","","","","","",""
"","html-keyboard-response","395","1521386","0.0-207.0-1.0","null","<p></p>","null","","","","","","","","","","","","","","","","","","","","","","",""
"","do_trial","396","1525958","0.0-208.0-0.0","0.19999998807907104","","","","","","","","51","1,0,0","3","mountain","145","probe-133","0.30681067010539503","0.054036958421958235","0.5279902784552847","0","","","","","","","",""
"","html-keyboard-response","397","1526962","0.0-208.0-1.0","null","<p></p>","null","","","","","","","","","","","","","","","","","","","","","","",""
"","do_trial","398","1534081","0.0-209.0-0.0","2557.100000023842","","","","","","","","49","1,1,1","3","mountain","146","probe-121","0.29773404250807184","0.12862494746436215","0.48705424076878134","1","","","","","","","",""
"","html-keyboard-response","399","1535092","0.0-209.0-1.0","null","<p></p>","null","","","","","","","","","","","","","","","","","","","","","","",""
"","do_trial","400","1541474","0.0-210.0-0.0","1661.9000000059605","","","","","","","","50","1,0,0","3","mountain","147","probe-25","0.2373733224030381","0.11369026392977266","0.5116479870322119","0","","","","","","","",""
"","html-keyboard-response","401","1542480","0.0-210.0-1.0","null","<p></p>","null","","","","","","","","","","","","","","","","","","","","","","",""
"","do_trial","402","1548640","0.0-211.0-0.0","null","","","","","","","","null","0,0,1","3","mountain","148","probe-219","0.2406893905846008","0.06462771013539427","0.581599950667432","","","","","","","","",""
"","html-keyboard-response","403","1549655","0.0-211.0-1.0","null","<p></p>","null","","","","","","","","","","","","","","","","","","","","","","",""
"","do_trial","404","1554805","0.0-212.0-0.0","509.90000000596046","","","","","","","","49","1,0,1","3","mountain","149","probe-66","0.16990638498632948","0.13750628310094612","0.6289610281701373","1","","","","","","","",""
"","html-keyboard-response","405","1555813","0.0-212.0-1.0","null","<p></p>","null","","","","","","","","","","","","","","","","","","","","","","",""
"","do_bye","406","1557332","0.0-213.0-0.0","null","","","","","","","","null","","","","","","","","","","","","","","","","",""
"","break","407","1562173","0.0-213.0-1.0","4839","<div class='center'><p>Time to take a quick break! You have 2 minutes to rest, but you can move on sooner if you'd like.</p><p> Press the <b>space bar</b> to continue.</p></div>","32","","","","","","","","","","","","","","","","","","","","","","",""
"","do_travel","408","1571188","0.0-214.0-0.0","null","","","","","","","","null","","","","","","","","","","","","","","","","",""
"","do_welcome","409","1575210","0.0-214.0-1.0","null","","","","","","","","null","","","","","","","","","","","","","","","","",""
"","do_trial","410","1581283","0.0-215.0-0.0","null","","","","","","","","null","0,0,1","4","countryside","150","probe-128","0.10627601237181876","0.05439941033957681","1","","","","","","","","",""
"","html-keyboard-response","411","1582301","0.0-215.0-1.0","null","<p></p>","null","","","","","","","","","","","","","","","","","","","","","","",""
"","do_trial","412","1587456","0.0-216.0-0.0","576.2000000178814","","","","","","","","49","1,1,1","4","countryside","151","probe-150","0.23446019218868142","0.14291876308332","1","1","","","","","","","",""
"","html-keyboard-response","413","1588465","0.0-216.0-1.0","null","<p></p>","null","","","","","","","","","","","","","","","","","","","","","","",""
"","do_trial","414","1593152","0.0-217.0-0.0","133.59999999403954","","","","","","","","49","0,0,0","4","countryside","152","probe-64","0.2730954150045593","0.1498624351325176","0.8778021193071027","0","","","","","","","",""
"","html-keyboard-response","415","1594158","0.0-217.0-1.0","null","<p></p>","null","","","","","","","","","","","","","","","","","","","","","","",""
"","do_trial","416","1600268","0.0-218.0-0.0","null","","","","","","","","null","0,0,1","4","countryside","153","probe-16","0.3511429342074346","0.20709408682904695","0.7391219819752215","","","","","","","","",""
"","html-keyboard-response","417","1601285","0.0-218.0-1.0","null","<p></p>","null","","","","","","","","","","","","","","","","","","","","","","",""
"","do_trial","418","1607139","0.0-219.0-0.0","1292.3999999761581","","","","","","","","49","1,0,1","4","countryside","154","probe-29","0.3313057911652903","0.17028504948379847","0.659934309049091","1","","","","","","","",""
"","html-keyboard-response","419","1608142","0.0-219.0-1.0","null","<p></p>","null","","","","","","","","","","","","","","","","","","","","","","",""
"","do_trial","420","1612701","0.0-220.0-0.0","0.09999999403953552","","","","","","","","49","1,0,0","4","countryside","155","probe-89","0.3558883385562834","0.1811511567523321","0.653658977516383","1","","","","","","","",""
"","html-keyboard-response","421","1613717","0.0-220.0-1.0","null","<p></p>","null","","","","","","","","","","","","","","","","","","","","","","",""
"","do_trial","422","1619679","0.0-221.0-0.0","1355.2999999821186","","","","","","","","49","1,0,1","4","countryside","156","probe-71","0.3081539959012538","0.20123289969178146","0.42191498209906997","1","","","","","","","",""
"","html-keyboard-response","423","1620690","0.0-221.0-1.0","null","<p></p>","null","","","","","","","","","","","","","","","","","","","","","","",""
"","do_trial","424","1626973","0.0-222.0-0.0","1699.7000000178814","","","","","","","","49","1,1,0","4","countryside","157","probe-199","0.2845819830963143","0.10698229353883484","0.34511074328742586","1","","","","","","","",""
"","html-keyboard-response","425","1627988","0.0-222.0-1.0","null","<p></p>","null","","","","","","","","","","","","","","","","","","","","","","",""
"","do_trial","426","1633165","0.0-223.0-0.0","591.4000000059605","","","","","","","","49","0,0,0","4","countryside","158","probe-194","0.23209642332238326","0.1738956360710273","0.5528616290014321","0","","","","","","","",""
"","html-keyboard-response","427","1634181","0.0-223.0-1.0","null","<p></p>","null","","","","","","","","","","","","","","","","","","","","","","",""
"","do_trial","428","1640293","0.0-224.0-0.0","null","","","","","","","","null","0,0,1","4","countryside","159","probe-135","0.3168939836460512","0.22450370902690828","0.4847309375484276","","","","","","","","",""
"","html-keyboard-response","429","1641306","0.0-224.0-1.0","null","<p></p>","null","","","","","","","","","","","","","","","","","","","","","","",""
"","do_trial","430","1647267","0.0-225.0-0.0","1362.199999988079","","","","","","","","51","0,0,1","4","countryside","160","probe-131","0.22562627094296908","0.3284110451538582","0.3830966493764097","1","","","","","","","",""
"","html-keyboard-response","431","1648281","0.0-225.0-1.0","null","<p></p>","null","","","","","","","","","","","","","","","","","","","","","","",""
"","do_trial","432","1653918","0.0-226.0-0.0","1037.7999999821186","","","","","","","","51","1,0,0","4","countryside","161","probe-159","0.0935368881955389","0.34612527011949196","0.34927614302481247","0","","","","","","","",""
"","html-keyboard-response","433","1654933","0.0-226.0-1.0","null","<p></p>","null","","","","","","","","","","","","","","","","","","","","","","",""
"","do_trial","434","1659815","0.0-227.0-0.0","267.7000000178814","","","","","","","","51","1,0,1","4","countryside","162","probe-76","0.05891748527714708","0.5379657913721763","0.49428366038976485","1","","","","","","","",""
"","html-keyboard-response","435","1660830","0.0-227.0-1.0","null","<p></p>","null","","","","","","","","","","","","","","","","","","","","","","",""
"","do_trial","436","1667396","0.0-228.0-0.0","1970","","","","","","","","51","0,1,0","4","countryside","163","probe-142","0.13960478377577898","0.678013189295905","0.4963101739394481","0","","","","","","","",""
"","html-keyboard-response","437","1668402","0.0-228.0-1.0","null","<p></p>","null","","","","","","","","","","","","","","","","","","","","","","",""
"","do_trial","438","1674799","0.0-229.0-0.0","1811.5","","","","","","","","50","0,0,1","4","countryside","164","probe-138","0.29516462568219","0.6188278870833499","0.38702328082587073","0","","","","","","","",""
"","html-keyboard-response","439","1675803","0.0-229.0-1.0","null","<p></p>","null","","","","","","","","","","","","","","","","","","","","","","",""
"","do_trial","440","1681144","0.0-230.0-0.0","758.9000000059605","","","","","","","","51","1,0,1","4","countryside","165","probe-93","0.22763875485543664","0.6200615898364119","0.2509813144776862","1","","","","","","","",""
"","html-keyboard-response","441","1682152","0.0-230.0-1.0","null","<p></p>","null","","","","","","","","","","","","","","","","","","","","","","",""
"","do_trial","442","1687280","0.0-231.0-0.0","583.0999999940395","","","","","","","","51","0,1,1","4","countryside","166","probe-139","0.19477202572111207","0.7291538025563479","0.2264952703571236","1","","","","","","","",""
"","html-keyboard-response","443","1688298","0.0-231.0-1.0","null","<p></p>","null","","","","","","","","","","","","","","","","","","","","","","",""
"","do_trial","444","1694391","0.0-232.0-0.0","null","","","","","","","","null","0,1,0","4","countryside","167","probe-01","0.12007882528950455","0.706039808607328","0.15739557466787135","","","","","","","","",""
"","html-keyboard-response","445","1695394","0.0-232.0-1.0","null","<p></p>","null","","","","","","","","","","","","","","","","","","","","","","",""
"","do_trial","446","1700564","0.0-233.0-0.0","562.5999999940395","","","","","","","","51","1,1,0","4","countryside","168","probe-189","0.07387336055717325","0.719712107742402","0.3571578541245154","0","","","","","","","",""
"","html-keyboard-response","447","1701578","0.0-233.0-1.0","null","<p></p>","null","","","","","","","","","","","","","","","","","","","","","","",""
"","do_trial","448","1706271","0.0-234.0-0.0","103.10000002384186","","","","","","","","49","0,1,0","4","countryside","169","probe-216","0.14834397592582513","0.5153343743355135","0.3643692424781854","0","","","","","","","",""
"","html-keyboard-response","449","1707283","0.0-234.0-1.0","null","<p></p>","null","","","","","","","","","","","","","","","","","","","","","","",""
"","do_trial","450","1714661","0.0-235.0-0.0","2665.5","","","","","","","","50","0,0,0","4","countryside","170","probe-24","0.1068199116139342","0.6391442380986316","0.35954084008287696","0","","","","","","","",""
"","html-keyboard-response","451","1715678","0.0-235.0-1.0","null","<p></p>","null","","","","","","","","","","","","","","","","","","","","","","",""
"","do_trial","452","1720801","0.0-236.0-0.0","521.5","","","","","","","","49","0,1,1","4","countryside","171","probe-43","0.0765703978248487","0.5436862883065094","0.2851596558843291","0","","","","","","","",""
"","html-keyboard-response","453","1721807","0.0-236.0-1.0","null","<p></p>","null","","","","","","","","","","","","","","","","","","","","","","",""
"","do_trial","454","1728922","0.0-237.0-0.0","2529.800000011921","","","","","","","","51","0,1,0","4","countryside","172","probe-155","0.11459833836444791","0.5332674385934597","0.215973471114118","0","","","","","","","",""
"","html-keyboard-response","455","1729938","0.0-237.0-1.0","null","<p></p>","null","","","","","","","","","","","","","","","","","","","","","","",""
"","do_trial","456","1736852","0.0-238.0-0.0","2344.199999988079","","","","","","","","51","0,0,0","4","countryside","173","probe-42","0.09874812943289457","0.7678498336014008","0.07672060962087034","0","","","","","","","",""
"","html-keyboard-response","457","1737856","0.0-238.0-1.0","null","<p></p>","null","","","","","","","","","","","","","","","","","","","","","","",""
"","do_trial","458","1742895","0.0-239.0-0.0","468.40000000596046","","","","","","","","50","0,1,0","4","countryside","174","probe-58","0.0618411316104662","0.7104488313884854","0.09309518154795322","1","","","","","","","",""
"","html-keyboard-response","459","1743911","0.0-239.0-1.0","null","<p></p>","null","","","","","","","","","","","","","","","","","","","","","","",""
"","do_trial","460","1749255","0.0-240.0-0.0","742.5999999940395","","","","","","","","49","0,1,1","4","countryside","175","probe-117","0.06322280945606928","0.7344269381281686","0.15135097262355876","0","","","","","","","",""
"","html-keyboard-response","461","1750271","0.0-240.0-1.0","null","<p></p>","null","","","","","","","","","","","","","","","","","","","","","","",""
"","do_trial","462","1757041","0.0-241.0-0.0","2165.5","","","","","","","","50","0,0,0","4","countryside","176","probe-162","0.3076742253518544","0.565355054582928","0.22732568804361478","0","","","","","","","",""
"","html-keyboard-response","463","1758044","0.0-241.0-1.0","null","<p></p>","null","","","","","","","","","","","","","","","","","","","","","","",""
"","do_trial","464","1763775","0.0-242.0-0.0","1165.5","","","","","","","","51","0,1,1","4","countryside","177","probe-81","0.4443431561917791","0.5978999110677201","0.3780864329322081","1","","","","","","","",""
"","html-keyboard-response","465","1764778","0.0-242.0-1.0","null","<p></p>","null","","","","","","","","","","","","","","","","","","","","","","",""
"","do_trial","466","1769557","0.0-243.0-0.0","159.30000001192093","","","","","","","","51","0,1,1","4","countryside","178","probe-225","0.4464294588350011","0.4071520509798408","0.28763193900868234","1","","","","","","","",""
"","html-keyboard-response","467","1770561","0.0-243.0-1.0","null","<p></p>","null","","","","","","","","","","","","","","","","","","","","","","",""
"","do_trial","468","1776899","0.0-244.0-0.0","1744.6000000238419","","","","","","","","51","0,1,0","4","countryside","179","probe-200","0.3111134591953016","0.5020914294381972","0.24097930647216484","0","","","","","","","",""
"","html-keyboard-response","469","1777915","0.0-244.0-1.0","null","<p></p>","null","","","","","","","","","","","","","","","","","","","","","","",""
"","do_trial","470","1784402","0.0-245.0-0.0","1878.0999999940395","","","","","","","","49","0,1,1","4","countryside","180","probe-91","0.16860521028559836","0.4990630649926854","0.24614065379619654","0","","","","","","","",""
"","html-keyboard-response","471","1785406","0.0-245.0-1.0","null","<p></p>","null","","","","","","","","","","","","","","","","","","","","","","",""
"","do_trial","472","1791465","0.0-246.0-0.0","1455.300000011921","","","","","","","","49","0,1,0","4","countryside","181","probe-99","0.09781894843703651","0.5926976716279471","0.23324088039006227","0","","","","","","","",""
"","html-keyboard-response","473","1792470","0.0-246.0-1.0","null","<p></p>","null","","","","","","","","","","","","","","","","","","","","","","",""
