"success","trial_type","trial_index","time_elapsed","internal_node_id","rt","stimulus","key_press","subject_id","response","choice_outcomes","context_n","context_img_id","trial_n","probe_img_id","pR_red","pR_white","pR_black","outcome","contextArray_ind","validImageProbes","invalidImageProbes","pRew_Red","pRew_White","pRew_Black","availableForMemProbe","choice_blocks"
"true","fullscreen","0","2881","0.0-0.0","","","","","","","","","","","","","","","","","","","","","",""
"","pavlovia","1","2886","0.0-1.0","","","","","","","","","","","","","","","","","","","","","",""
"","html-keyboard-response","2","17413","0.0-2.0","14525.299999982119","<div class='center'><p>Welcome! This is the first day of the experiment which will last ~30 minutes. In this experiment, you are the head captain of a pirate ship traveling around the world to different places. You will complete several different tasks during this experiment. Here is an overview of these tasks:</p><br><p>Day 1</p><p>1. Tutorial and quiz</p><p>2. Pick a pirate game in 6 different places</p><br><p>Day 2</p><p>3. Pick a pirate game and memory game</p><p>4. Final questions and payment</p><br><p>If you complete the entire experiment, you will receive $15 and a possible bonus payment.</p><p><b>[Press the space bar to begin the tutorial]</b></p></div>","32","6100890590897b8377a08eac","","","","","","","","","","","","","","","","","",""
"","html-keyboard-response","3","22307","0.0-3.0","4891.9000000059605","<div class='center'><p>You’ll stop at these 6 islands on your journey. You'll be able to see them in the distance from your ship.</p><p><img src='run_exp/static/images/contexts/all_contexts.png' height='500'></p><p><b>[Press the space bar to continue]</b></p></div>","32","","","","","","","","","","","","","","","","","","",""
"","html-keyboard-response","4","28451","0.0-4.0","6143","<div class='center'><p> The pirates on your ship will rob other ships as they leave island</p> These ships have just sold their things to the people living on the island, so they will have lots and lots of gold on them.</p><p><img src='run_exp/static/images/tutorial/ship_center.png' height='400'></p><p><b>[Press the space bar to continue]</b></p></div>","32","","","","","","","","","","","","","","","","","","",""
"","html-keyboard-response","5","36882","0.0-5.0","8429.699999988079","<div class='center'><p>As the head captain, you do not have to rob any ships yourself.</p><p>Another pirate will be doing the robbing for you. </p><p><img src='run_exp/static/images/tutorial/pirates_all_crop.png' height='200'></p><p>If they could rob the ship, then you will get a stack of gold coins like this:</p><p><img src='run_exp/static/images/tutorial/reward.png' height='150'></p><p> If they couldn't rob the ship, then you will get no gold coins and you'll see a big red x like this: </p><p><img src='run_exp/static/images/tutorial/reward_no.png' height='150'></p><p> How much bonus money you make is based on how many gold coins you collect.</p><p><b>[Press the space bar to continue]</b></p><div>","32","","","","","","","","","","","","","","","","","","",""
"","html-keyboard-response","6","53945","0.0-6.0","17061.30000001192","<div class='center'><p>Even the most skilled pirate can not rob EVERY ship.</p><p> Some ships will have very strong defenses against pirate attacks.</p><p> For example, blue beard, here, is very, very good at robbing ships.</p><p> You can press the <b>‘1’</b> button on the keyboard to choose him.</p><p> Try choosing him 10 times to see how often he can rob a ship. </p><p><img src='run_exp/static/images/tutorial/blue.png' height='500'></p></div>","49","","","","","","","","","","","","","","","","","","",""
"","html-keyboard-response","7","55447","0.0-7.0","null","<div class='center'><p><img src='run_exp/static/images/tutorial/blue_win.png' height='500'></p></div>","null","","","","","","","","","","","","","","","","","","",""
"","html-keyboard-response","8","55505","0.0-8.0","56.400000005960464","<div class='center'><img src='run_exp/static/images/tutorial/blue.png' height='500'></p></div>","49","","","","","","","","","","","","","","","","","","",""
"","html-keyboard-response","9","57010","0.0-9.0","null","<div class='center'><p><img src='run_exp/static/images/tutorial/blue_win.png' height='500'></p></div>","null","","","","","","","","","","","","","","","","","","",""
"","html-keyboard-response","10","58028","0.0-10.0","1016.5999999940395","<div class='center'><img src='run_exp/static/images/tutorial/blue.png' height='500'></p></div>","49","","","","","","","","","","","","","","","","","","",""
"","html-keyboard-response","11","59530","0.0-11.0","null","<div class='center'><p><img src='run_exp/static/images/tutorial/blue_win.png' height='500'></p></div>","null","","","","","","","","","","","","","","","","","","",""
"","html-keyboard-response","12","59756","0.0-12.0","224.59999999403954","<div class='center'><img src='run_exp/static/images/tutorial/blue.png' height='500'></p></div>","49","","","","","","","","","","","","","","","","","","",""
"","html-keyboard-response","13","61257","0.0-13.0","null","<div class='center'><p><img src='run_exp/static/images/tutorial/blue_no_win.png' height='500'></p></div>","null","","","","","","","","","","","","","","","","","","",""
"","html-keyboard-response","14","61812","0.0-14.0","553","<div class='center'><img src='run_exp/static/images/tutorial/blue.png' height='500'></p></div>","49","","","","","","","","","","","","","","","","","","",""
"","html-keyboard-response","15","63312","0.0-15.0","null","<div class='center'><p><img src='run_exp/static/images/tutorial/blue_win.png' height='500'></p></div>","null","","","","","","","","","","","","","","","","","","",""
"","html-keyboard-response","16","63827","0.0-16.0","513.6999999880791","<div class='center'><img src='run_exp/static/images/tutorial/blue.png' height='500'></p></div>","49","","","","","","","","","","","","","","","","","","",""
"","html-keyboard-response","17","65329","0.0-17.0","null","<div class='center'><p><img src='run_exp/static/images/tutorial/blue_win.png' height='500'></p></div>","null","","","","","","","","","","","","","","","","","","",""
"","html-keyboard-response","18","65979","0.0-18.0","649.1999999880791","<div class='center'><img src='run_exp/static/images/tutorial/blue.png' height='500'></p></div>","49","","","","","","","","","","","","","","","","","","",""
"","html-keyboard-response","19","67482","0.0-19.0","null","<div class='center'><p><img src='run_exp/static/images/tutorial/blue_win.png' height='500'></p></div>","null","","","","","","","","","","","","","","","","","","",""
"","html-keyboard-response","20","68035","0.0-20.0","552.6000000238419","<div class='center'><img src='run_exp/static/images/tutorial/blue.png' height='500'></p></div>","49","","","","","","","","","","","","","","","","","","",""
"","html-keyboard-response","21","69537","0.0-21.0","null","<div class='center'><p><img src='run_exp/static/images/tutorial/blue_no_win.png' height='500'></p></div>","null","","","","","","","","","","","","","","","","","","",""
"","html-keyboard-response","22","70307","0.0-22.0","769.0999999940395","<div class='center'><img src='run_exp/static/images/tutorial/blue.png' height='500'></p></div>","49","","","","","","","","","","","","","","","","","","",""
"","html-keyboard-response","23","71810","0.0-23.0","null","<div class='center'><p><img src='run_exp/static/images/tutorial/blue_win.png' height='500'></p></div>","null","","","","","","","","","","","","","","","","","","",""
"","html-keyboard-response","24","72267","0.0-24.0","456.2999999821186","<div class='center'><img src='run_exp/static/images/tutorial/blue.png' height='500'></p></div>","49","","","","","","","","","","","","","","","","","","",""
"","html-keyboard-response","25","73769","0.0-25.0","null","<div class='center'><p><img src='run_exp/static/images/tutorial/blue_win.png' height='500'></p></div>","null","","","","","","","","","","","","","","","","","","",""
"","html-keyboard-response","26","75738","0.0-26.0","1969","<div class='center'><p> See, he could rob the ships most of the time but not every time. </p><p><b>[Press the space bar to continue]</b></p></div>","32","","","","","","","","","","","","","","","","","","",""
"","html-keyboard-response","27","81211","0.0-27.0","5471","<div class='center'><p>You will get to choose which of three pirates you want to rob the next ship. <p>Press the <b>‘1’</b> button on your keyboard to pick the pirate with the red beard.</p><p> Press <b>‘2’</b> to pick the pirate with the white beard.</p><p> Press <b>‘3’</b> to pick the pirate with the black beard.</p><p>Try picking a pirate now!</p><p><img src='run_exp/static/images/tutorial/all_pirates.png' height='500'></p></div>","51","","","","","","","","","","","","","","","","","","",""
"","html-keyboard-response","28","82986","0.0-28.0-0.0","1773","<div class='center'><p>This pirate could rob the ship!</p><p><img src='run_exp/static/images/tutorial/black_win.png' height='500'></p><p><b>[Press the space bar to continue]</b></p></div>","32","","","","","","","","","","","","","","","","","","",""
"","html-keyboard-response","29","84218","0.0-28.0-1.0","1231","<div class='center'><p>Now try choosing another</p><p><img src='run_exp/static/images/tutorial/all_pirates.png' height='500'></p></div>","50","","","","","","","","","","","","","","","","","","",""
"","html-keyboard-response","30","84874","0.0-29.0-0.0","654.7000000178814","<div class='center'><p>This pirate could not rob the ship!</p><p><img src='run_exp/static/images/tutorial/white_no_win.png' height='500'></p><p><b>[Press the space bar to continue]</b></p></div>","32","","","","","","","","","","","","","","","","","","",""
"","html-keyboard-response","31","92786","0.0-30.0-0.0","7911","<div class='center'><p>If you don’t make your choice fast enough, you’ll have to wait a few seconds before you can make another one. </p><p>You can’t collect more gold coins. You just have to sit and wait.</p><p><img src='run_exp/static/images/miscellaneous/hurry_up.png' height='500'></p><p><b>[Press the space bar to continue]</b></p></div>","32","","","","","","","","","","","","","","","","","","",""
"","html-keyboard-response","32","110194","0.0-30.0-1.0","17406.600000023842","<div class='center'><p>Once you choose a pirate, you’ll be shown the ship they are robbing.</p><p>You will never rob the same ship twice.</p><p>Ships can be told apart from one another by the image on them.</p><p> Every time you see a ship, you will have to remember on which island you saw it.</p><p> Remembering correctly will help you win more bonus money!</p><p>A helpful strategy is to try to come up with a story of the object on the ship interacting with the current island scene.</p><p> For example, here, you could imagine a mug full of water in the desert. </p><p>For a ship with an apple on it on the forest island, you could imagine an apple falling from a tree in the forest.</p><p><img src='run_exp/static/images/tutorial/example_probe.png' height='500'></p><p><b>[Press the space bar to continue]</b></p></div>","32","","","","","","","","","","","","","","","","","","",""
"","html-keyboard-response","33","117123","0.0-30.0-2.0","6926.5","<div class='center'><p>How good a pirate is at robbing ships will depend on the current island.</p><p> A pirate may have visited the island many times before and gained a lot of practice robbing ships there.</p><p>So, they're more likely to bring back gold coins than a pirate who has never visited this island before. </p><p><b>[Press the space bar to continue]</b></p></div>","32","","","","","","","","","","","","","","","","","","",""
"","html-keyboard-response","34","127154","0.0-30.0-3.0","10030.199999988079","<div class='center'><p>How good a pirate is at robbing ships can also change over the time spent on the island<p> Ships may hear from islanders about the pirates coming and will improve their protection against the attack. This may make it harder to rob them.</p><p> Ships may also become lazy and lower their protection. This may make it easier to rob them.</p><br><p>Things are always changing on the high seas! So, try your best to pay attention!</p><p><img src='run_exp/static/images/tutorial/contingency.png' height='500'></p><p><b>[Press the space bar to continue]</b></p></div>","32","","","","","","","","","","","","","","","","","","",""
"","html-keyboard-response","35","143601","0.0-30.0-4.0","16446.19999998808","<div class='center'><p>Let's go over the instructions quickly again.You have two important things to do: </p><b><p> 1. Pick the pirate who is the best at robbing ships on the current island.</p></b><b><p> 2. Remember on which island a ship was robbed.</p> </b><p>How much bonus money you make is based on both. </p><br><p>Let’s try a practice game. The game will start by showing you the pirates. First pick a pirate using the <b> 1, 2, 3 </b> buttons on your keyboard. When you are shown a ship, try to remember the island you’re on by making up a story.</p><p> You only have 3 seconds to pick a pirate, so please make a choice quickly! If you are too slow, you’ll have to wait a bit during the time out.</p><p> Don’t feel rushed, but please do try to make a choice every time.</p><p>This is just a practice game, so you’re not playing for money. </p><p> Good luck, remember press <b>'1'</b> to choose red beard, <b>'2'</b> to choose white beard, and <b>'3'</b> to choose black beard</p><p><b>[Press the space bar to begin the practice game]</b></p></div>","32","","","","","","","","","","","","","","","","","","",""
"","do_welcome","36","145109","0.0-30.0-5.0","null","","","","null","","","","","","","","","","","","","","","","",""
"","do_trial","37","150927","0.0-30.0-6.0","1307.800000011921","","","","51","1,0,0","","","","","","","","","","","","","","","",""
"","html-keyboard-response","38","151929","0.0-31.0-0.0","null","<p></p>","null","","","","","","","","","","","","","","","","","","",""
"","do_trial","39","157645","0.0-31.0-1.0","1210.5999999940395","","","","51","1,1,0","","","","","","","","","","","","","","","",""
"","html-keyboard-response","40","158647","0.0-32.0-0.0","null","<p></p>","null","","","","","","","","","","","","","","","","","","",""
"","do_trial","41","163598","0.0-32.0-1.0","444.09999999403954","","","","50","1,0,1","","","","","","","","","","","","","","","",""
"","html-keyboard-response","42","164599","0.0-33.0-0.0","null","<p></p>","null","","","","","","","","","","","","","","","","","","",""
"","do_trial","43","169613","0.0-33.0-1.0","506.80000001192093","","","","50","0,1,0","","","","","","","","","","","","","","","",""
"","html-keyboard-response","44","170614","0.0-34.0-0.0","null","<p></p>","null","","","","","","","","","","","","","","","","","","",""
"","do_trial","45","175597","0.0-34.0-1.0","476","","","","50","1,0,0","","","","","","","","","","","","","","","",""
"","do_bye","46","177102","0.0-35.0-0.0","null","","","","null","","","","","","","","","","","","","","","","",""
"","do_travel","47","183106","0.0-35.0-1.0","null","","","","null","","","","","","","","","","","","","","","","",""
"","do_welcome","48","184611","0.0-35.0-2.0","null","","","","null","","","","","","","","","","","","","","","","",""
"","do_trial","49","189855","0.0-35.0-3.0","737.2000000178814","","","","49","1,0,0","","","","","","","","","","","","","","","",""
"","html-keyboard-response","50","190857","0.0-36.0-0.0","null","<p></p>","null","","","","","","","","","","","","","","","","","","",""
"","do_trial","51","195958","0.0-36.0-1.0","595.1999999880791","","","","49","1,0,1","","","","","","","","","","","","","","","",""
"","html-keyboard-response","52","196960","0.0-37.0-0.0","null","<p></p>","null","","","","","","","","","","","","","","","","","","",""
"","do_trial","53","201870","0.0-37.0-1.0","404.09999999403954","","","","49","1,1,0","","","","","","","","","","","","","","","",""
"","html-keyboard-response","54","202872","0.0-38.0-0.0","null","<p></p>","null","","","","","","","","","","","","","","","","","","",""
"","do_trial","55","207830","0.0-38.0-1.0","451.40000000596046","","","","49","0,0,1","","","","","","","","","","","","","","","",""
"","html-keyboard-response","56","208831","0.0-39.0-0.0","null","<p></p>","null","","","","","","","","","","","","","","","","","","",""
"","do_trial","57","213854","0.0-39.0-1.0","515.0999999940395","","","","49","1,0,1","","","","","","","","","","","","","","","",""
"","html-keyboard-response","58","216448","0.0-40.0-0.0","2592.5","<div class='center'><p><img src='run_exp/static/images/tutorial/prac_best_pirate.png'  height='500'></p></div>","49","","","","","","","","","","","","","","","","","","",""
"","html-keyboard-response","59","217224","0.0-41.0-0.0","774.5","<div class='center'><p>That's correct! Red beard was the best.</p><p><b>[Press the space bar to continue]</b></p></div>","32","","","","","","","","","","","","","","","","","","",""
"","html-keyboard-response","60","220216","0.0-41.0-1.0","2991.199999988079","<div class='center'><p><img src='run_exp/static/images/tutorial/prac_source.png'  height='500'></p></div>","50","","","","","","","","","","","","","","","","","","",""
"","html-keyboard-response","61","221223","0.0-42.0-0.0","1006.7000000178814","<div class='center'><p>That's correct! You saw this ship on the cavern island.</p><p><b>[Press the space bar to continue]</b></p></div>","32","","","","","","","","","","","","","","","","","","",""
"","html-keyboard-response","62","225279","0.0-42.0-1.0","4055.300000011921","<div class='center'><p>Good job on the practice game! Now, you will be asked you some true or false questions to make sure you really understand the rules of the game.</p><p> Press <b>'1'</b> on the keyboard for true and press <b>'2'</b> for false.</p><p><b>[Press the space bar to begin the quiz]</b></p></div>","32","","","","","","","","","","","","","","","","","","",""
"","html-keyboard-response","63","228655","0.0-42.0-2.0","3375.5999999940395","<div class='center'><p>You win bonus money by making choices as fast as possible.</p><p>Press 1 for true and press  2 for false.</p></div>","49","","","","","","","","","","","","","","","","","","",""
"","html-keyboard-response","64","230639","0.0-43.0-0.0","1982.199999988079","<<div class='center'><p>That’s incorrect! You win bonus money by collecting as many gold coins as possible!</p><p><b>[press the space bar to continue with the quiz]</b></p></div>","32","","","","","","","","","","","","","","","","","","",""
"","html-keyboard-response","65","233687","0.0-43.0-1.0","3047","<div class='center'><p>You press the <b>‘3’</b> button on the keyboard to choose the red bearded pirate. </p><p>Press 1 for true and press  2 for false.</p></div>","50","","","","","","","","","","","","","","","","","","",""
"","html-keyboard-response","66","234287","0.0-44.0-0.0","599.1999999880791","<div class='center'><p>That's correct!</p> <p><b>[press the space bar to continue with the quiz]</b></p></div>","32","","","","","","","","","","","","","","","","","","",""
"","html-keyboard-response","67","236958","0.0-44.0-1.0","2670.7999999821186","<div class='center'><p>The pirate who is the best at robbing ships on the first island will be the best on every other island.</p><p>Press 1 for true and press  2 for false.</p></div>","50","","","","","","","","","","","","","","","","","","",""
"","html-keyboard-response","68","237246","0.0-45.0-0.0","287.09999999403954","<div class='center'><p>That's correct!</p> <p><b>[press the space bar to continue with the quiz]</b></p></div>","32","","","","","","","","","","","","","","","","","","",""
"","html-keyboard-response","69","239401","0.0-45.0-1.0","2151.4000000059605","<div class='center'><p>You should remember the island where a pirate robbed a ship.</p><p>Press 1 for true and press  2 for false.</p></div>","49","","","","","","","","","","","","","","","","","","",""
"","html-keyboard-response","70","239769","0.0-46.0-0.0","364.09999999403954","<div class='center'><p>That's correct!</p> <p><b>[press the space bar to continue with the quiz]</b></p></div>","32","","","","","","","","","","","","","","","","","","",""
"","html-keyboard-response","71","243713","0.0-47.0-0.0","3943.199999988079","<div class='center'><p>Oops, you missed some questions. Now that you’ve heard the correct answers. Try the quiz again! If you fail the quiz too many times, you won’t be able to do the experiment. </p> <p><br>[press the space bar to repeat the quiz]</br></p></div>","32","","","","","","","","","","","","","","","","","","",""
"","html-keyboard-response","72","244905","0.0-47.0-1.0","1191","<div class='center'><p>You win bonus money by making choices as fast as possible.</p><p>Press 1 for true and press  2 for false.</p></div>","50","","","","","","","","","","","","","","","","","","",""
"","html-keyboard-response","73","245617","0.0-48.0-0.0","711.0999999940395","<div class='center'><p>That's correct!</p> <p><b>[press the space bar to continue with the quiz]</b></p></div>","32","","","","","","","","","","","","","","","","","","",""
"","html-keyboard-response","74","248080","0.0-48.0-1.0","2463.0999999940395","<div class='center'><p>You press the <b>‘3’</b> button on the keyboard to choose the red bearded pirate. </p><p>Press 1 for true and press  2 for false.</p></div>","50","","","","","","","","","","","","","","","","","","",""
"","html-keyboard-response","75","248424","0.0-49.0-0.0","343.40000000596046","<div class='center'><p>That's correct!</p> <p><b>[press the space bar to continue with the quiz]</b></p></div>","32","","","","","","","","","","","","","","","","","","",""
"","html-keyboard-response","76","250817","0.0-49.0-1.0","2391.300000011921","<div class='center'><p>The pirate who is the best at robbing ships on the first island will be the best on every other island.</p><p>Press 1 for true and press  2 for false.</p></div>","50","","","","","","","","","","","","","","","","","","",""
"","html-keyboard-response","77","251137","0.0-50.0-0.0","319.2000000178814","<div class='center'><p>That's correct!</p> <p><b>[press the space bar to continue with the quiz]</b></p></div>","32","","","","","","","","","","","","","","","","","","",""
"","html-keyboard-response","78","252440","0.0-50.0-1.0","1303.2000000178814","<div class='center'><p>You should remember the island where a pirate robbed a ship.</p><p>Press 1 for true and press  2 for false.</p></div>","49","","","","","","","","","","","","","","","","","","",""
"","html-keyboard-response","79","252752","0.0-51.0-0.0","300.89999997615814","<div class='center'><p>That's correct!</p> <p><b>[press the space bar to continue with the quiz]</b></p></div>","32","","","","","","","","","","","","","","","","","","",""
"","html-keyboard-response","80","253969","0.0-52.0-0.0","1215.300000011921","<div class='center'><p>Good job! You’re now ready to move on to the real game!</p> <p><br>[press the space bar to begin!]</br></p></div>","32","","","","","","","","","","","","","","","","","","",""
"","do_welcome","81","255474","0.0-53.0-0.0","null","","","","null","","","","","","","","","","","","","","","","",""
"","do_trial","82","261646","0.0-54.0-0.0","1602.9000000059605","","","","50","0,0,0","0","mountain","0","probe-91","0.6","0.3","0.1","0","","","","","","","",""
"","html-keyboard-response","83","262649","0.0-54.0-1.0","null","<p></p>","null","","","","","","","","","","","","","","","","","","",""
"","do_trial","84","267774","0.0-55.0-0.0","564.8999999761581","","","","50","1,1,0","0","mountain","1","probe-222","0.6430305962780422","0.28657748330000316","0.09568120101931409","1","","","","","","","",""
"","html-keyboard-response","85","268776","0.0-55.0-1.0","null","<p></p>","null","","","","","","","","","","","","","","","","","","",""
"","do_trial","86","273740","0.0-56.0-0.0","404.7999999821186","","","","50","1,0,0","0","mountain","2","probe-49","0.5841230714703908","0.33745607061105176","0.11045289066693427","0","","","","","","","",""
"","html-keyboard-response","87","274742","0.0-56.0-1.0","null","<p></p>","null","","","","","","","","","","","","","","","","","","",""
"","do_trial","88","279701","0.0-57.0-0.0","398.7000000178814","","","","51","1,0,0","0","mountain","3","probe-46","0.6370527525955452","0.17704497968562294","0.1628019277506029","0","","","","","","","",""
"","html-keyboard-response","89","280703","0.0-57.0-1.0","null","<p></p>","null","","","","","","","","","","","","","","","","","","",""
"","do_trial","90","285636","0.0-58.0-0.0","374.2000000178814","","","","51","1,1,0","0","mountain","4","probe-141","0.596206269021999","0.25656969912844213","0.2685647668081176","0","","","","","","","",""
"","html-keyboard-response","91","286639","0.0-58.0-1.0","null","<p></p>","null","","","","","","","","","","","","","","","","","","",""
"","do_trial","92","291580","0.0-59.0-0.0","381.69999998807907","","","","49","0,0,0","0","mountain","5","probe-65","0.5007991340769219","0.29674409214319986","0.20114675605524165","0","","","","","","","",""
"","html-keyboard-response","93","292581","0.0-59.0-1.0","null","<p></p>","null","","","","","","","","","","","","","","","","","","",""
"","do_trial","94","297491","0.0-60.0-0.0","352.5","","","","49","1,0,0","0","mountain","6","probe-215","0.5531897725239839","0.11957596907398976","0.17247260642355566","1","","","","","","","",""
"","html-keyboard-response","95","298493","0.0-60.0-1.0","null","<p></p>","null","","","","","","","","","","","","","","","","","","",""
"","do_trial","96","303397","0.0-61.0-0.0","342.5","","","","49","1,0,0","0","mountain","7","probe-02","0.5946176239605723","0.08490684194114718","0.22236732887500343","1","","","","","","","",""
"","html-keyboard-response","97","304400","0.0-61.0-1.0","null","<p></p>","null","","","","","","","","","","","","","","","","","","",""
"","do_trial","98","309365","0.0-62.0-0.0","404.09999999403954","","","","49","0,0,0","0","mountain","8","probe-218","0.6772600123228866","0.11961736816963559","0.29534222633467233","0","","","","","","","",""
"","html-keyboard-response","99","310367","0.0-62.0-1.0","null","<p></p>","null","","","","","","","","","","","","","","","","","","",""
"","do_trial","100","315373","0.0-63.0-0.0","441.59999999403954","","","","51","1,1,0","0","mountain","9","probe-75","0.7280131759644024","0.1573095261023463","0.2791711166285285","0","","","","","","","",""
"","html-keyboard-response","101","316376","0.0-63.0-1.0","null","<p></p>","null","","","","","","","","","","","","","","","","","","",""
"","do_trial","102","321333","0.0-64.0-0.0","396.59999999403954","","","","50","1,0,0","0","mountain","10","probe-154","0.7007507681044267","0.27348532897045597","0.1913732580057148","0","","","","","","","",""
"","html-keyboard-response","103","322334","0.0-64.0-1.0","null","<p></p>","null","","","","","","","","","","","","","","","","","","",""
"","do_trial","104","327333","0.0-65.0-0.0","437","","","","49","1,0,0","0","mountain","11","probe-220","0.7372184645985523","0.3787540734135557","0.16022476186687898","1","","","","","","","",""
"","html-keyboard-response","105","328334","0.0-65.0-1.0","null","<p></p>","null","","","","","","","","","","","","","","","","","","",""
"","do_trial","106","333356","0.0-66.0-0.0","462.19999998807907","","","","49","1,0,0","0","mountain","12","probe-227","0.6782519097316281","0.5332190734885595","0.16354952383286772","1","","","","","","","",""
"","html-keyboard-response","107","334358","0.0-66.0-1.0","null","<p></p>","null","","","","","","","","","","","","","","","","","","",""
"","do_trial","108","339284","0.0-67.0-0.0","365.09999999403954","","","","49","0,0,0","0","mountain","13","probe-190","0.6194415872949524","0.3089514690618031","0.05801542935461386","0","","","","","","","",""
"","html-keyboard-response","109","340286","0.0-67.0-1.0","null","<p></p>","null","","","","","","","","","","","","","","","","","","",""
"","do_trial","110","345268","0.0-68.0-0.0","420.2000000178814","","","","49","1,1,0","0","mountain","14","probe-30","0.6659553510945238","0.4118274473884199","0.21793620503322836","1","","","","","","","",""
"","html-keyboard-response","111","346269","0.0-68.0-1.0","null","<p></p>","null","","","","","","","","","","","","","","","","","","",""
"","do_trial","112","351363","0.0-69.0-0.0","534.0999999940395","","","","49","1,1,0","0","mountain","15","probe-52","0.7114215576333299","0.47145871737817147","0.08315992927063853","1","","","","","","","",""
"","html-keyboard-response","113","352365","0.0-69.0-1.0","null","<p></p>","null","","","","","","","","","","","","","","","","","","",""
"","do_trial","114","357418","0.0-70.0-0.0","491","","","","49","0,0,0","0","mountain","16","probe-109","0.667092624186876","0.36886023133814155","0.1257981578158169","0","","","","","","","",""
"","html-keyboard-response","115","358420","0.0-70.0-1.0","null","<p></p>","null","","","","","","","","","","","","","","","","","","",""
"","do_trial","116","363646","0.0-71.0-0.0","665","","","","49","0,0,0","0","mountain","17","probe-28","0.4679163224153855","0.3021875475220596","0.11743971326243728","0","","","","","","","",""
"","html-keyboard-response","117","364647","0.0-71.0-1.0","null","<p></p>","null","","","","","","","","","","","","","","","","","","",""
"","do_trial","118","369645","0.0-72.0-0.0","437.80000001192093","","","","49","0,1,0","0","mountain","18","probe-06","0.5301621961608451","0.5325825428364598","0.07772175317322942","0","","","","","","","",""
"","html-keyboard-response","119","370647","0.0-72.0-1.0","null","<p></p>","null","","","","","","","","","","","","","","","","","","",""
"","do_trial","120","375652","0.0-73.0-0.0","444.90000000596046","","","","49","1,1,0","0","mountain","19","probe-03","0.6008700525941164","0.4296453232634277","0.09168835946000883","1","","","","","","","",""
"","html-keyboard-response","121","376655","0.0-73.0-1.0","null","<p></p>","null","","","","","","","","","","","","","","","","","","",""
"","do_trial","122","381676","0.0-74.0-0.0","460.59999999403954","","","","49","1,1,0","0","mountain","20","probe-81","0.6359737324766698","0.3484144191974554","0.058727110931721456","1","","","","","","","",""
"","html-keyboard-response","123","382678","0.0-74.0-1.0","null","<p></p>","null","","","","","","","","","","","","","","","","","","",""
"","do_trial","124","387795","0.0-75.0-0.0","559.7999999821186","","","","49","0,0,0","0","mountain","21","probe-114","0.44926120622798843","0.383173024637924","0.13459059266139028","0","","","","","","","",""
"","html-keyboard-response","125","388797","0.0-75.0-1.0","null","<p></p>","null","","","","","","","","","","","","","","","","","","",""
"","do_trial","126","393699","0.0-76.0-0.0","344.30000001192093","","","","49","0,0,0","0","mountain","22","probe-18","0.4111609239120267","0.22088770642944439","0.08560217737031181","0","","","","","","","",""
"","html-keyboard-response","127","394701","0.0-76.0-1.0","null","<p></p>","null","","","","","","","","","","","","","","","","","","",""
"","do_trial","128","399875","0.0-77.0-0.0","614.7000000178814","","","","50","0,0,0","0","mountain","23","probe-192","0.47064893051738593","0.30663505542466624","0.09976519336948181","0","","","","","","","",""
"","html-keyboard-response","129","400877","0.0-77.0-1.0","null","<p></p>","null","","","","","","","","","","","","","","","","","","",""
"","do_trial","130","406058","0.0-78.0-0.0","620.4000000059605","","","","50","0,0,0","0","mountain","24","probe-191","0.5230007271811205","0.2640659201508585","0.1750609859096737","0","","","","","","","",""
"","html-keyboard-response","131","407060","0.0-78.0-1.0","null","<p></p>","null","","","","","","","","","","","","","","","","","","",""
"","do_trial","132","412050","0.0-79.0-0.0","431.60000002384186","","","","51","1,0,0","0","mountain","25","probe-103","0.5252630162634003","0.3607289372489206","0.24798452419503034","0","","","","","","","",""
"","html-keyboard-response","133","413053","0.0-79.0-1.0","null","<p></p>","null","","","","","","","","","","","","","","","","","","",""
"","do_trial","134","417962","0.0-80.0-0.0","349.40000000596046","","","","49","1,0,0","0","mountain","26","probe-160","0.7429243843334107","0.501991186770175","0.08992846553032141","1","","","","","","","",""
"","html-keyboard-response","135","418964","0.0-80.0-1.0","null","<p></p>","null","","","","","","","","","","","","","","","","","","",""
"","do_trial","136","424012","0.0-81.0-0.0","485.90000000596046","","","","49","1,1,0","0","mountain","27","probe-93","0.6693881813670676","0.36981838246026266","0.16529209481827592","1","","","","","","","",""
"","html-keyboard-response","137","425015","0.0-81.0-1.0","null","<p></p>","null","","","","","","","","","","","","","","","","","","",""
"","do_trial","138","430082","0.0-82.0-0.0","509","","","","49","1,1,0","0","mountain","28","probe-113","0.6038817520613495","0.45785580541568804","0.13564323376595971","1","","","","","","","",""
"","html-keyboard-response","139","431084","0.0-82.0-1.0","null","<p></p>","null","","","","","","","","","","","","","","","","","","",""
"","do_trial","140","436403","0.0-83.0-0.0","758.5999999940395","","","","49","1,1,0","0","mountain","29","probe-31","0.6631146697311415","0.48382282803202614","0.11168937496015457","1","","","","","","","",""
"","html-keyboard-response","141","437405","0.0-83.0-1.0","null","<p></p>","null","","","","","","","","","","","","","","","","","","",""
"","do_bye","142","438910","0.0-84.0-0.0","null","","","","null","","","","","","","","","","","","","","","","",""
"","do_travel","143","444913","0.0-85.0-0.0","null","","","","null","","","","","","","","","","","","","","","","",""
"","do_welcome","144","446418","0.0-85.0-1.0","null","","","","null","","","","","","","","","","","","","","","","",""
"","do_trial","145","452162","0.0-86.0-0.0","1185.699999988079","","","","51","1,0,0","1","city","30","probe-224","1","0.46368350056617064","0.2113047654093622","0","","","","","","","",""
"","html-keyboard-response","146","453164","0.0-86.0-1.0","null","<p></p>","null","","","","","","","","","","","","","","","","","","",""
"","do_trial","147","458090","0.0-87.0-0.0","363.09999999403954","","","","51","1,0,0","1","city","31","probe-76","1","0.48662624286176254","0.15213903963777214","0","","","","","","","",""
"","html-keyboard-response","148","459092","0.0-87.0-1.0","null","<p></p>","null","","","","","","","","","","","","","","","","","","",""
"","do_trial","149","464105","0.0-88.0-0.0","454.2999999821186","","","","50","1,1,0","1","city","32","probe-105","1","0.4534357538973277","0.06853979451004318","1","","","","","","","",""
"","html-keyboard-response","150","465107","0.0-88.0-1.0","null","<p></p>","null","","","","","","","","","","","","","","","","","","",""
"","do_trial","151","470945","0.0-89.0-0.0","1278.199999988079","","","","50","1,1,0","1","city","33","probe-21","0.7077961145783097","0.42295494836328706","0.0769265673450122","1","","","","","","","",""
"","html-keyboard-response","152","471948","0.0-89.0-1.0","null","<p></p>","null","","","","","","","","","","","","","","","","","","",""
"","do_trial","153","477273","0.0-90.0-0.0","761.4000000059605","","","","50","0,0,0","1","city","34","probe-203","0.6497667543173707","0.41913283077826863","0.060167787161147644","0","","","","","","","",""
"","html-keyboard-response","154","478275","0.0-90.0-1.0","null","<p></p>","null","","","","","","","","","","","","","","","","","","",""
"","do_trial","155","484338","0.0-91.0-0.0","null","","","","null","0,0,0","1","city","35","probe-94","0.5720676018784727","0.31641153203557454","0.07383469856216662","","","","","","","","",""
"","html-keyboard-response","156","485340","0.0-91.0-1.0","null","<p></p>","null","","","","","","","","","","","","","","","","","","",""
"","do_trial","157","491406","0.0-92.0-0.0","null","","","","null","1,0,0","1","city","36","probe-106","0.6994510883455242","0.20319312853230506","0.12045088652993913","","","","","","","","",""
"","html-keyboard-response","158","492408","0.0-92.0-1.0","null","<p></p>","null","","","","","","","","","","","","","","","","","","",""
"","do_trial","159","497579","0.0-93.0-0.0","611.6000000238419","","","","50","1,0,0","1","city","37","probe-72","0.7521032874266608","0.19627529200452443","0.19443626238700673","0","","","","","","","",""
"","html-keyboard-response","160","498580","0.0-93.0-1.0","null","<p></p>","null","","","","","","","","","","","","","","","","","","",""
"","do_trial","161","503658","0.0-94.0-0.0","518.5","","","","49","0,0,0","1","city","38","probe-96","0.6493965840753808","0.17214019341500908","0.14830956951319155","0","","","","","","","",""
"","html-keyboard-response","162","504660","0.0-94.0-1.0","null","<p></p>","null","","","","","","","","","","","","","","","","","","",""
"","do_trial","163","512098","0.0-95.0-0.0","2871.699999988079","","","","49","1,0,0","1","city","39","probe-156","0.6101930447988326","0.2644917853233184","0.1620953510756445","1","","","","","","","",""
"","html-keyboard-response","164","513100","0.0-95.0-1.0","null","<p></p>","null","","","","","","","","","","","","","","","","","","",""
"","do_trial","165","518201","0.0-96.0-0.0","541.5","","","","49","1,0,1","1","city","40","probe-33","0.510790913535626","0.24906464778670473","0.3269438275032182","1","","","","","","","",""
"","html-keyboard-response","166","519202","0.0-96.0-1.0","null","<p></p>","null","","","","","","","","","","","","","","","","","","",""
"","do_trial","167","524953","0.0-97.0-0.0","1191.5","","","","49","0,0,0","1","city","41","probe-170","0.43749780753674544","0.21598868724223294","0.41624602454722015","0","","","","","","","",""
"","html-keyboard-response","168","525955","0.0-97.0-1.0","null","<p></p>","null","","","","","","","","","","","","","","","","","","",""
"","do_trial","169","532095","0.0-98.0-0.0","1581","","","","50","0,1,1","1","city","42","probe-38","0.21220942756553993","0.2850943741517396","0.6045230039394559","1","","","","","","","",""
"","html-keyboard-response","170","533098","0.0-98.0-1.0","null","<p></p>","null","","","","","","","","","","","","","","","","","","",""
"","do_trial","171","538472","0.0-99.0-0.0","814.7000000178814","","","","50","1,0,1","1","city","43","probe-97","0.2900405018089928","0.2735065077358983","0.7029106503434084","0","","","","","","","",""
"","html-keyboard-response","172","539474","0.0-99.0-1.0","null","<p></p>","null","","","","","","","","","","","","","","","","","","",""
"","do_trial","173","545026","0.0-100.0-0.0","990.5999999940395","","","","49","0,0,0","1","city","44","probe-179","0.18758423102040112","0.20242290287985262","0.5734574120312198","0","","","","","","","",""
"","html-keyboard-response","174","546028","0.0-100.0-1.0","null","<p></p>","null","","","","","","","","","","","","","","","","","","",""
"","do_trial","175","551170","0.0-101.0-0.0","582.6999999880791","","","","49","1,0,0","1","city","45","probe-116","0.1704835674365396","0.23474993354899365","0.5431282457542308","1","","","","","","","",""
"","html-keyboard-response","176","552172","0.0-101.0-1.0","null","<p></p>","null","","","","","","","","","","","","","","","","","","",""
"","do_trial","177","557337","0.0-102.0-0.0","604","","","","49","1,1,0","1","city","46","probe-08","0.12703014014394895","0.23821463094732864","0.5941359336681356","1","","","","","","","",""
"","html-keyboard-response","178","558339","0.0-102.0-1.0","null","<p></p>","null","","","","","","","","","","","","","","","","","","",""
"","do_trial","179","564400","0.0-103.0-0.0","null","","","","null","0,1,1","1","city","47","probe-54","0.2392288032152081","0.24224189476863603","0.711819097243418","","","","","","","","",""
"","html-keyboard-response","180","565402","0.0-103.0-1.0","null","<p></p>","null","","","","","","","","","","","","","","","","","","",""
"","do_trial","181","570625","0.0-104.0-0.0","663.9000000059605","","","","49","0,0,1","1","city","48","probe-99","0.16173575485332234","0.2035323464515049","0.7121168672726066","0","","","","","","","",""
"","html-keyboard-response","182","571627","0.0-104.0-1.0","null","<p></p>","null","","","","","","","","","","","","","","","","","","",""
"","do_trial","183","576188","0.0-105.0-0.0","0.30000001192092896","","","","49","0,0,1","1","city","49","probe-138","0.22548640891930521","0.2659988155802546","0.8496781724645976","0","","","","","","","",""
"","html-keyboard-response","184","577190","0.0-105.0-1.0","null","<p></p>","null","","","","","","","","","","","","","","","","","","",""
"","do_trial","185","582720","0.0-106.0-0.0","971.1999999880791","","","","49","0,1,1","1","city","50","probe-122","0.19158768277686328","0.13457145291876763","0.747838039566988","0","","","","","","","",""
"","html-keyboard-response","186","583722","0.0-106.0-1.0","null","<p></p>","null","","","","","","","","","","","","","","","","","","",""
"","do_trial","187","588848","0.0-107.0-0.0","567.2999999821186","","","","49","0,0,1","1","city","51","probe-181","0.24183280477961042","0.15041830578360135","0.5496878445846354","0","","","","","","","",""
"","html-keyboard-response","188","589850","0.0-107.0-1.0","null","<p></p>","null","","","","","","","","","","","","","","","","","","",""
"","do_trial","189","595255","0.0-108.0-0.0","842.4000000059605","","","","49","0,0,1","1","city","52","probe-87","0.18792642450043254","0.19760196802801536","0.5372906129885177","0","","","","","","","",""
"","html-keyboard-response","190","596257","0.0-108.0-1.0","null","<p></p>","null","","","","","","","","","","","","","","","","","","",""
"","do_trial","191","601689","0.0-109.0-0.0","872.3999999761581","","","","49","0,0,1","1","city","53","probe-209","0.10406260923866036","0.35548930267609635","0.6193378061182327","0","","","","","","","",""
"","html-keyboard-response","192","602691","0.0-109.0-1.0","null","<p></p>","null","","","","","","","","","","","","","","","","","","",""
"","do_trial","193","608000","0.0-110.0-0.0","750","","","","49","0,0,0","1","city","54","probe-146","0.08756416067292928","0.3499835598439928","0.636914431745933","0","","","","","","","",""
"","html-keyboard-response","194","609002","0.0-110.0-1.0","null","<p></p>","null","","","","","","","","","","","","","","","","","","",""
"","do_trial","195","614449","0.0-111.0-0.0","888","","","","49","0,0,0","1","city","55","probe-26","0.18904793378910828","0.31858023038142963","0.5824945588825174","0","","","","","","","",""
"","html-keyboard-response","196","615451","0.0-111.0-1.0","null","<p></p>","null","","","","","","","","","","","","","","","","","","",""
"","do_trial","197","620856","0.0-112.0-0.0","843.5","","","","49","0,0,0","1","city","56","probe-145","0.16551789984385937","0.2872732290389199","0.5046310404682248","0","","","","","","","",""
"","html-keyboard-response","198","621859","0.0-112.0-1.0","null","<p></p>","null","","","","","","","","","","","","","","","","","","",""
"","do_trial","199","627216","0.0-113.0-0.0","796.4000000059605","","","","49","0,0,1","1","city","57","probe-119","0.20890036351030936","0.28866428702396146","0.4735615554944046","0","","","","","","","",""
"","html-keyboard-response","200","628218","0.0-113.0-1.0","null","<p></p>","null","","","","","","","","","","","","","","","","","","",""
"","do_trial","201","633665","0.0-114.0-0.0","888.4000000059605","","","","50","1,0,0","1","city","58","probe-60","0.2152737229647271","0.3526581422787043","0.5645818733062284","0","","","","","","","",""
"","html-keyboard-response","202","634667","0.0-114.0-1.0","null","<p></p>","null","","","","","","","","","","","","","","","","","","",""
"","do_trial","203","640168","0.0-115.0-0.0","936.9000000059605","","","","50","1,1,1","1","city","59","probe-59","0.1470900594334333","0.3563972439686709","0.6380581581042043","1","","","","","","","",""
"","html-keyboard-response","204","641170","0.0-115.0-1.0","null","<p></p>","null","","","","","","","","","","","","","","","","","","",""
"","do_trial","205","646942","0.0-116.0-0.0","1214.199999988079","","","","50","0,1,1","1","city","60","probe-171","0.07546168791226339","0.40185220249793246","0.5934661397035728","1","","","","","","","",""
"","html-keyboard-response","206","647944","0.0-116.0-1.0","null","<p></p>","null","","","","","","","","","","","","","","","","","","",""
"","do_trial","207","653438","0.0-117.0-0.0","934.1999999880791","","","","50","0,0,0","1","city","61","probe-172","0.12464955540591577","0.3695108109947071","0.6862643229278109","0","","","","","","","",""
"","html-keyboard-response","208","654441","0.0-117.0-1.0","null","<p></p>","null","","","","","","","","","","","","","","","","","","",""
"","do_trial","209","659998","0.0-118.0-0.0","996.9000000059605","","","","50","0,0,1","1","city","62","probe-89","0.13770752600833178","0.3417122981704895","0.6983500527703838","0","","","","","","","",""
"","html-keyboard-response","210","660999","0.0-118.0-1.0","null","<p></p>","null","","","","","","","","","","","","","","","","","","",""
"","do_trial","211","666008","0.0-119.0-0.0","448.60000002384186","","","","51","0,0,1","1","city","63","probe-63","0.12085105457035226","0.45405984160656276","0.6348421010117195","1","","","","","","","",""
"","html-keyboard-response","212","667010","0.0-119.0-1.0","null","<p></p>","null","","","","","","","","","","","","","","","","","","",""
"","do_trial","213","672576","0.0-120.0-0.0","1001.5","","","","51","0,1,1","1","city","64","probe-69","0.11103078346432088","0.3151255048771693","0.5668746682038935","1","","","","","","","",""
"","html-keyboard-response","214","673578","0.0-120.0-1.0","null","<p></p>","null","","","","","","","","","","","","","","","","","","",""
"","do_trial","215","678984","0.0-121.0-0.0","847.0999999940395","","","","51","0,1,1","1","city","65","probe-36","0.07543101872098992","0.30871323375460313","0.5622276909762515","1","","","","","","","",""
"","html-keyboard-response","216","679986","0.0-121.0-1.0","null","<p></p>","null","","","","","","","","","","","","","","","","","","",""
"","do_trial","217","685047","0.0-122.0-0.0","501.40000000596046","","","","51","0,0,1","1","city","66","probe-121","0.26960459460857955","0.30788095390725173","0.5284909891133972","1","","","","","","","",""
"","html-keyboard-response","218","686049","0.0-122.0-1.0","null","<p></p>","null","","","","","","","","","","","","","","","","","","",""
"","do_trial","219","691119","0.0-123.0-0.0","510.5","","","","51","0,0,0","1","city","67","probe-223","0.15280636185536714","0.4575652763522027","0.36529684417710445","0","","","","","","","",""
"","html-keyboard-response","220","692121","0.0-123.0-1.0","null","<p></p>","null","","","","","","","","","","","","","","","","","","",""
"","do_trial","221","697167","0.0-124.0-0.0","483.7000000178814","","","","51","0,0,0","1","city","68","probe-124","0.12926679432470983","0.36149541360350107","0.39732769126570333","0","","","","","","","",""
"","html-keyboard-response","222","698170","0.0-124.0-1.0","null","<p></p>","null","","","","","","","","","","","","","","","","","","",""
"","do_trial","223","703551","0.0-125.0-0.0","815","","","","51","1,0,0","1","city","69","probe-90","0.05811531822842836","0.3548369850355468","0.41327595308963466","0","","","","","","","",""
"","html-keyboard-response","224","704552","0.0-125.0-1.0","null","<p></p>","null","","","","","","","","","","","","","","","","","","",""
"","do_bye","225","706057","0.0-126.0-0.0","null","","","","null","","","","","","","","","","","","","","","","",""
"","do_travel","226","712060","0.0-127.0-0.0","null","","","","null","","","","","","","","","","","","","","","","",""
"","do_welcome","227","713565","0.0-127.0-1.0","null","","","","null","","","","","","","","","","","","","","","","",""
"","do_trial","228","719157","0.0-128.0-0.0","1032.5999999940395","","","","50","0,0,1","2","coast","70","probe-208","0.13427358845276482","0.4436304236726919","1","0","","","","","","","",""
"","html-keyboard-response","229","720159","0.0-128.0-1.0","null","<p></p>","null","","","","","","","","","","","","","","","","","","",""
"","do_trial","230","725223","0.0-129.0-0.0","499.90000000596046","","","","50","0,1,1","2","coast","71","probe-214","0.19456945968617564","0.490536124568719","1","1","","","","","","","",""
"","html-keyboard-response","231","726225","0.0-129.0-1.0","null","<p></p>","null","","","","","","","","","","","","","","","","","","",""
"","do_trial","232","731623","0.0-130.0-0.0","839.4000000059605","","","","50","0,0,1","2","coast","72","probe-168","0.14716755997319517","0.4212841350195491","0.842782481735732","0","","","","","","","",""
"","html-keyboard-response","233","732625","0.0-130.0-1.0","null","<p></p>","null","","","","","","","","","","","","","","","","","","",""
"","do_trial","234","737647","0.0-131.0-0.0","462.2000000178814","","","","50","0,0,1","2","coast","73","probe-120","0.12779817677562308","0.24177317132426346","0.9128345921321372","0","","","","","","","",""
"","html-keyboard-response","235","738648","0.0-131.0-1.0","null","<p></p>","null","","","","","","","","","","","","","","","","","","",""
"","do_trial","236","743326","0.0-132.0-0.0","118.09999999403954","","","","50","0,0,0","2","coast","74","probe-147","0.2517324068714789","0.25979595528213406","0.782626786397104","0","","","","","","","",""
"","html-keyboard-response","237","744328","0.0-132.0-1.0","null","<p></p>","null","","","","","","","","","","","","","","","","","","",""
"","do_trial","238","749510","0.0-133.0-0.0","624.2999999821186","","","","50","0,0,1","2","coast","75","probe-158","0.21017007664821907","0.2999099307009275","0.8089312791875604","0","","","","","","","",""
"","html-keyboard-response","239","750512","0.0-133.0-1.0","null","<p></p>","null","","","","","","","","","","","","","","","","","","",""
"","do_trial","240","755501","0.0-134.0-0.0","432","","","","49","0,0,1","2","coast","76","probe-178","0.220953207322358","0.2620450244171608","0.7950234859225871","0","","","","","","","",""
"","html-keyboard-response","241","756504","0.0-134.0-1.0","null","<p></p>","null","","","","","","","","","","","","","","","","","","",""
"","do_trial","242","761542","0.0-135.0-0.0","479.39999997615814","","","","49","1,0,1","2","coast","77","probe-153","0.13454910892649244","0.19157648781243022","0.882676924898881","1","","","","","","","",""
"","html-keyboard-response","243","762544","0.0-135.0-1.0","null","<p></p>","null","","","","","","","","","","","","","","","","","","",""
"","do_trial","244","768446","0.0-136.0-0.0","1341.699999988079","","","","51","0,0,1","2","coast","78","probe-126","0.27391159955273636","0.17687710248429464","0.8616344789797421","1","","","","","","","",""
"","html-keyboard-response","245","769448","0.0-136.0-1.0","null","<p></p>","null","","","","","","","","","","","","","","","","","","",""
"","do_trial","246","774693","0.0-137.0-0.0","683.1000000238419","","","","50","0,0,1","2","coast","79","probe-185","0.2405288986615685","0.2875575708435837","0.81768924535913","0","","","","","","","",""
"","html-keyboard-response","247","775695","0.0-137.0-1.0","null","<p></p>","null","","","","","","","","","","","","","","","","","","",""
"","do_trial","248","781588","0.0-138.0-0.0","1334.4000000059605","","","","50","0,0,1","2","coast","80","probe-71","0.28080465891416373","0.47938627629296643","0.7222495088485122","0","","","","","","","",""
"","html-keyboard-response","249","782591","0.0-138.0-1.0","null","<p></p>","null","","","","","","","","","","","","","","","","","","",""
"","do_trial","250","787735","0.0-139.0-0.0","582.5999999940395","","","","49","0,0,1","2","coast","81","probe-15","0.36756173900889394","0.3881156200160417","0.6684431948037187","0","","","","","","","",""
"","html-keyboard-response","251","788737","0.0-139.0-1.0","null","<p></p>","null","","","","","","","","","","","","","","","","","","",""
"","do_trial","252","793781","0.0-140.0-0.0","486.30000001192093","","","","51","0,0,1","2","coast","82","probe-193","0.5275588474837429","0.4125273313107941","0.5784832956500006","1","","","","","","","",""
"","html-keyboard-response","253","794783","0.0-140.0-1.0","null","<p></p>","null","","","","","","","","","","","","","","","","","","",""
"","do_trial","254","799717","0.0-141.0-0.0","375.09999999403954","","","","50","0,0,1","2","coast","83","probe-80","0.4855968790026703","0.47013000347196915","0.4493651721260292","0","","","","","","","",""
"","html-keyboard-response","255","800719","0.0-141.0-1.0","null","<p></p>","null","","","","","","","","","","","","","","","","","","",""
"","do_trial","256","806333","0.0-142.0-0.0","1052.2000000178814","","","","50","1,0,0","2","coast","84","probe-159","0.5385267458575301","0.5393120378678081","0.28574972124822073","0","","","","","","","",""
"","html-keyboard-response","257","807334","0.0-142.0-1.0","null","<p></p>","null","","","","","","","","","","","","","","","","","","",""
"","do_trial","258","812565","0.0-143.0-0.0","671.2999999821186","","","","51","1,0,0","2","coast","85","probe-176","0.5356019030262554","0.3941947330056828","0.24873503344466852","0","","","","","","","",""
"","html-keyboard-response","259","813566","0.0-143.0-1.0","null","<p></p>","null","","","","","","","","","","","","","","","","","","",""
"","do_trial","260","818725","0.0-144.0-0.0","599.1999999880791","","","","51","0,0,0","2","coast","86","probe-41","0.5599978324980156","0.328307052843177","0.26959839682224485","0","","","","","","","",""
"","html-keyboard-response","261","819727","0.0-144.0-1.0","null","<p></p>","null","","","","","","","","","","","","","","","","","","",""
"","do_trial","262","824933","0.0-145.0-0.0","645.9000000059605","","","","49","0,0,1","2","coast","87","probe-134","0.5186421718141607","0.27939442743940385","0.16570256226259042","0","","","","","","","",""
"","html-keyboard-response","263","825935","0.0-145.0-1.0","null","<p></p>","null","","","","","","","","","","","","","","","","","","",""
"","do_trial","264","831363","0.0-146.0-0.0","868.3000000119209","","","","50","1,0,0","2","coast","88","probe-98","0.6196218787671168","0.2740239494503473","0.2509733483180802","0","","","","","","","",""
"","html-keyboard-response","265","832365","0.0-146.0-1.0","null","<p></p>","null","","","","","","","","","","","","","","","","","","",""
"","do_trial","266","838787","0.0-147.0-0.0","1858.4000000059605","","","","50","0,0,1","2","coast","89","probe-88","0.6440060014089286","0.4078644428831019","0.20213193527617745","0","","","","","","","",""
"","html-keyboard-response","267","839789","0.0-147.0-1.0","null","<p></p>","null","","","","","","","","","","","","","","","","","","",""
"","do_trial","268","845165","0.0-148.0-0.0","812.7999999821186","","","","51","1,1,0","2","coast","90","probe-73","0.766661056597695","0.4012595405426139","0.2192585227376508","0","","","","","","","",""
"","html-keyboard-response","269","846167","0.0-148.0-1.0","null","<p></p>","null","","","","","","","","","","","","","","","","","","",""
"","do_trial","270","851333","0.0-149.0-0.0","606.9000000059605","","","","50","0,0,0","2","coast","91","probe-133","0.6654245031099844","0.4085439929170061","0.29596053546058815","0","","","","","","","",""
"","html-keyboard-response","271","852335","0.0-149.0-1.0","null","<p></p>","null","","","","","","","","","","","","","","","","","","",""
"","do_trial","272","857516","0.0-150.0-0.0","623.6999999880791","","","","49","1,1,0","2","coast","92","probe-221","0.43619320554774305","0.20156357802529173","0.31625470587725774","1","","","","","","","",""
"","html-keyboard-response","273","858518","0.0-150.0-1.0","null","<p></p>","null","","","","","","","","","","","","","","","","","","",""
"","do_trial","274","863885","0.0-151.0-0.0","802.4000000059605","","","","50","1,0,0","2","coast","93","probe-118","0.46012391755576487","0.36405072551818857","0.15277724089076142","0","","","","","","","",""
"","html-keyboard-response","275","864887","0.0-151.0-1.0","null","<p></p>","null","","","","","","","","","","","","","","","","","","",""
"","do_trial","276","870180","0.0-152.0-0.0","733.3000000119209","","","","50","1,0,0","2","coast","94","probe-108","0.4993497795905688","0.3304921426691033","0.13390227537593702","0","","","","","","","",""
"","html-keyboard-response","277","871181","0.0-152.0-1.0","null","<p></p>","null","","","","","","","","","","","","","","","","","","",""
"","do_trial","278","876605","0.0-153.0-0.0","862.5999999940395","","","","50","1,0,0","2","coast","95","probe-20","0.5578942465479552","0.3076815470603436","0.08043849961577537","0","","","","","","","",""
"","html-keyboard-response","279","877607","0.0-153.0-1.0","null","<p></p>","null","","","","","","","","","","","","","","","","","","",""
"","do_trial","280","882964","0.0-154.0-0.0","796.9000000059605","","","","49","0,0,1","2","coast","96","probe-45","0.6039105530686041","0.34590373542711417","0.08617875108164291","0","","","","","","","",""
"","html-keyboard-response","281","883966","0.0-154.0-1.0","null","<p></p>","null","","","","","","","","","","","","","","","","","","",""
"","do_trial","282","890395","0.0-155.0-0.0","1868.5999999940395","","","","49","0,0,0","2","coast","97","probe-213","0.5743037753010062","0.3248788453805664","0.22755939925496363","0","","","","","","","",""
"","html-keyboard-response","283","891397","0.0-155.0-1.0","null","<p></p>","null","","","","","","","","","","","","","","","","","","",""
"","do_trial","284","897667","0.0-156.0-0.0","1710.300000011921","","","","49","1,0,0","2","coast","98","probe-19","0.5449030386824076","0.28519337627665853","0.22918775352844958","1","","","","","","","",""
"","html-keyboard-response","285","898669","0.0-156.0-1.0","null","<p></p>","null","","","","","","","","","","","","","","","","","","",""
"","do_trial","286","904728","0.0-157.0-0.0","null","","","","null","1,0,0","2","coast","99","probe-22","0.5310020220932519","0.3786861700665975","0.14027538540506623","","","","","","","","",""
"","html-keyboard-response","287","905732","0.0-157.0-1.0","null","<p></p>","null","","","","","","","","","","","","","","","","","","",""
"","do_trial","288","911844","0.0-158.0-0.0","1552.5999999940395","","","","49","1,0,0","2","coast","100","probe-211","0.45766779541580255","0.35649377794500453","0.1860473536062094","1","","","","","","","",""
"","html-keyboard-response","289","912847","0.0-158.0-1.0","null","<p></p>","null","","","","","","","","","","","","","","","","","","",""
"","do_trial","290","918340","0.0-159.0-0.0","934.5","","","","50","1,1,0","2","coast","101","probe-66","0.5622978912063272","0.33615459979217927","0.0909215053514297","1","","","","","","","",""
"","html-keyboard-response","291","919342","0.0-159.0-1.0","null","<p></p>","null","","","","","","","","","","","","","","","","","","",""
"","do_trial","292","924676","0.0-160.0-0.0","772.9000000059605","","","","50","0,0,0","2","coast","102","probe-32","0.5321214295379126","0.4397760345898136","0.09474215316873269","0","","","","","","","",""
"","html-keyboard-response","293","925678","0.0-160.0-1.0","null","<p></p>","null","","","","","","","","","","","","","","","","","","",""
"","do_trial","294","931332","0.0-161.0-0.0","1093.9000000059605","","","","50","0,1,0","2","coast","103","probe-202","0.652013595953222","0.42159874579324913","0.14425688831975264","1","","","","","","","",""
"","html-keyboard-response","295","932334","0.0-161.0-1.0","null","<p></p>","null","","","","","","","","","","","","","","","","","","",""
"","do_trial","296","937851","0.0-162.0-0.0","954.5","","","","50","0,1,0","2","coast","104","probe-217","0.6864778164692086","0.32871061662394296","0.1836209931089492","1","","","","","","","",""
"","html-keyboard-response","297","938853","0.0-162.0-1.0","null","<p></p>","null","","","","","","","","","","","","","","","","","","",""
"","do_trial","298","945442","0.0-163.0-0.0","2030.9000000059605","","","","51","1,0,0","2","coast","105","probe-128","0.7483891685880186","0.28242504652070444","0.1736229783052994","0","","","","","","","",""
"","html-keyboard-response","299","946444","0.0-163.0-1.0","null","<p></p>","null","","","","","","","","","","","","","","","","","","",""
"","do_trial","300","952386","0.0-164.0-0.0","1381.4000000059605","","","","50","1,1,0","2","coast","106","probe-196","0.7114056030318419","0.30495455380709624","0.1909099155740188","1","","","","","","","",""
"","html-keyboard-response","301","953388","0.0-164.0-1.0","null","<p></p>","null","","","","","","","","","","","","","","","","","","",""
"","do_trial","302","959490","0.0-165.0-0.0","1542","","","","50","1,0,0","2","coast","107","probe-62","0.6191731896020838","0.21514593323424636","0.1866696382055074","0","","","","","","","",""
"","html-keyboard-response","303","960491","0.0-165.0-1.0","null","<p></p>","null","","","","","","","","","","","","","","","","","","",""
"","do_trial","304","965795","0.0-166.0-0.0","743.1000000238419","","","","50","0,0,1","2","coast","108","probe-95","0.5816460285704883","0.1621599747564143","0.29494818105392256","0","","","","","","","",""
"","html-keyboard-response","305","966797","0.0-166.0-1.0","null","<p></p>","null","","","","","","","","","","","","","","","","","","",""
"","do_trial","306","972907","0.0-167.0-0.0","1548.199999988079","","","","49","1,1,0","2","coast","109","probe-11","0.5863972449923799","0.1734334415926151","0.3461734535642115","1","","","","","","","",""
"","html-keyboard-response","307","973909","0.0-167.0-1.0","null","<p></p>","null","","","","","","","","","","","","","","","","","","",""
"","do_bye","308","975414","0.0-168.0-0.0","null","","","","null","","","","","","","","","","","","","","","","",""
"","do_travel","309","981416","0.0-169.0-0.0","null","","","","null","","","","","","","","","","","","","","","","",""
"","do_welcome","310","982921","0.0-169.0-1.0","null","","","","null","","","","","","","","","","","","","","","","",""
"","do_trial","311","988330","0.0-170.0-0.0","850","","","","49","1,0,0","3","countryside","110","probe-04","1","0.31662780564121656","0.38087258904858784","1","","","","","","","",""
"","html-keyboard-response","312","989331","0.0-170.0-1.0","null","<p></p>","null","","","","","","","","","","","","","","","","","","",""
"","do_trial","313","994651","0.0-171.0-0.0","761","","","","49","1,0,0","3","countryside","111","probe-137","1","0.2552613474942926","0.17212658875160458","1","","","","","","","",""
"","html-keyboard-response","314","995653","0.0-171.0-1.0","null","<p></p>","null","","","","","","","","","","","","","","","","","","",""
"","do_trial","315","1000690","0.0-172.0-0.0","476.2000000178814","","","","49","0,0,0","3","countryside","112","probe-64","0.8254502820694299","0.3459302259793817","0.10103856560270248","0","","","","","","","",""
"","html-keyboard-response","316","1001692","0.0-172.0-1.0","null","<p></p>","null","","","","","","","","","","","","","","","","","","",""
"","do_trial","317","1008506","0.0-173.0-0.0","2254","","","","50","1,0,0","3","countryside","113","probe-162","0.7961752596811859","0.2877071133714328","0.067570858225734","0","","","","","","","",""
"","html-keyboard-response","318","1009507","0.0-173.0-1.0","null","<p></p>","null","","","","","","","","","","","","","","","","","","",""
"","do_trial","319","1014746","0.0-174.0-0.0","677.2999999821186","","","","50","0,0,0","3","countryside","114","probe-57","0.670568222354802","0.3262656560327447","0.1373763292279839","0","","","","","","","",""
"","html-keyboard-response","320","1015748","0.0-174.0-1.0","null","<p></p>","null","","","","","","","","","","","","","","","","","","",""
"","do_trial","321","1020801","0.0-175.0-0.0","492.80000001192093","","","","50","0,1,0","3","countryside","115","probe-100","0.5277358281426053","0.35149496392146395","0.20834239650757483","1","","","","","","","",""
"","html-keyboard-response","322","1021803","0.0-175.0-1.0","null","<p></p>","null","","","","","","","","","","","","","","","","","","",""
"","do_trial","323","1026882","0.0-176.0-0.0","518.3000000119209","","","","50","1,0,1","3","countryside","116","probe-123","0.6440897806937944","0.373276187066514","0.15956620389579557","0","","","","","","","",""
"","html-keyboard-response","324","1027884","0.0-176.0-1.0","null","<p></p>","null","","","","","","","","","","","","","","","","","","",""
"","do_trial","325","1033619","0.0-177.0-0.0","1173.0999999940395","","","","50","0,0,0","3","countryside","117","probe-129","0.6790342411819502","0.3333970551594782","0.10234055133328626","0","","","","","","","",""
"","html-keyboard-response","326","1034621","0.0-177.0-1.0","null","<p></p>","null","","","","","","","","","","","","","","","","","","",""
"","do_trial","327","1039649","0.0-178.0-0.0","470.59999999403954","","","","49","1,1,0","3","countryside","118","probe-163","0.6323980165596372","0.3804375999298945","0.11408162947787003","1","","","","","","","",""
"","html-keyboard-response","328","1040651","0.0-178.0-1.0","null","<p></p>","null","","","","","","","","","","","","","","","","","","",""
"","do_trial","329","1046370","0.0-179.0-0.0","1158.2999999821186","","","","49","1,1,1","3","countryside","119","probe-10","0.7035563371321304","0.28398432265344475","0.1479316888111945","1","","","","","","","",""
"","html-keyboard-response","330","1047371","0.0-179.0-1.0","null","<p></p>","null","","","","","","","","","","","","","","","","","","",""
"","do_trial","331","1053409","0.0-180.0-0.0","1478.300000011921","","","","49","1,0,0","3","countryside","120","probe-23","0.6883958911972144","0.43283966400108675","0.1974618556464906","1","","","","","","","",""
"","html-keyboard-response","332","1054412","0.0-180.0-1.0","null","<p></p>","null","","","","","","","","","","","","","","","","","","",""
"","do_trial","333","1060129","0.0-181.0-0.0","1149.7000000178814","","","","50","1,1,0","3","countryside","121","probe-25","0.6728977644103135","0.5457688023910624","0.26499806173031887","1","","","","","","","",""
"","html-keyboard-response","334","1061131","0.0-181.0-1.0","null","<p></p>","null","","","","","","","","","","","","","","","","","","",""
"","do_trial","335","1066916","0.0-182.0-0.0","1219.0999999940395","","","","50","0,1,1","3","countryside","122","probe-131","0.6110642163392812","0.3141748253382476","0.38211207421730486","1","","","","","","","",""
"","html-keyboard-response","336","1067918","0.0-182.0-1.0","null","<p></p>","null","","","","","","","","","","","","","","","","","","",""
"","do_trial","337","1073416","0.0-183.0-0.0","937.2999999821186","","","","51","0,0,0","3","countryside","123","probe-101","0.4178803515383804","0.12157137417749456","0.5332670537760311","0","","","","","","","",""
"","html-keyboard-response","338","1074418","0.0-183.0-1.0","null","<p></p>","null","","","","","","","","","","","","","","","","","","",""
"","do_trial","339","1080120","0.0-184.0-0.0","1138.0999999940395","","","","50","0,1,1","3","countryside","124","probe-201","0.31791695080597565","0.22568354192161813","0.48375885835072097","1","","","","","","","",""
"","html-keyboard-response","340","1081121","0.0-184.0-1.0","null","<p></p>","null","","","","","","","","","","","","","","","","","","",""
"","do_trial","341","1086135","0.0-185.0-0.0","450.19999998807907","","","","49","1,0,1","3","countryside","125","probe-111","0.3556143981727664","0.13759646682881715","0.5833709376840822","1","","","","","","","",""
"","html-keyboard-response","342","1087140","0.0-185.0-1.0","null","<p></p>","null","","","","","","","","","","","","","","","","","","",""
"","do_trial","343","1092169","0.0-186.0-0.0","467.60000002384186","","","","49","0,0,0","3","countryside","126","probe-40","0.3044490175797995","0.17995358730587974","0.6929117292138024","0","","","","","","","",""
"","html-keyboard-response","344","1093171","0.0-186.0-1.0","null","<p></p>","null","","","","","","","","","","","","","","","","","","",""
"","do_trial","345","1098321","0.0-187.0-0.0","590.9000000059605","","","","50","0,1,1","3","countryside","127","probe-228","0.4062568257805892","0.19156533191032427","0.6952758191086694","1","","","","","","","",""
"","html-keyboard-response","346","1099323","0.0-187.0-1.0","null","<p></p>","null","","","","","","","","","","","","","","","","","","",""
"","do_trial","347","1104609","0.0-188.0-0.0","722.1999999880791","","","","50","0,0,1","3","countryside","128","probe-182","0.39862450377372083","0.18019411408654099","0.5381706407101405","0","","","","","","","",""
"","html-keyboard-response","348","1105611","0.0-188.0-1.0","null","<p></p>","null","","","","","","","","","","","","","","","","","","",""
"","do_trial","349","1111178","0.0-189.0-0.0","1003.6999999880791","","","","50","0,0,0","3","countryside","129","probe-13","0.3733335566111554","0.06677999434636055","0.3454058708450073","0","","","","","","","",""
"","html-keyboard-response","350","1112179","0.0-189.0-1.0","null","<p></p>","null","","","","","","","","","","","","","","","","","","",""
"","do_trial","351","1117320","0.0-190.0-0.0","576.7000000178814","","","","49","0,1,1","3","countryside","130","probe-78","0.4171538354496059","0.15849657902304004","0.39020739167847995","0","","","","","","","",""
"","html-keyboard-response","352","1118323","0.0-190.0-1.0","null","<p></p>","null","","","","","","","","","","","","","","","","","","",""
"","do_trial","353","1123984","0.0-191.0-0.0","1101.6000000238419","","","","49","0,0,1","3","countryside","131","probe-12","0.28003883862069756","0.10770599868760782","0.5288040695268729","0","","","","","","","",""
"","html-keyboard-response","354","1124986","0.0-191.0-1.0","null","<p></p>","null","","","","","","","","","","","","","","","","","","",""
"","do_trial","355","1130198","0.0-192.0-0.0","653.7999999821186","","","","50","0,0,0","3","countryside","132","probe-167","0.23870111277176795","0.11918072506335715","0.42075898817715307","0","","","","","","","",""
"","html-keyboard-response","356","1131200","0.0-192.0-1.0","null","<p></p>","null","","","","","","","","","","","","","","","","","","",""
"","do_trial","357","1136559","0.0-193.0-0.0","798.3000000119209","","","","50","0,0,0","3","countryside","133","probe-61","0.2586372759118814","0.2632048435619242","0.23935845657439284","0","","","","","","","",""
"","html-keyboard-response","358","1137561","0.0-193.0-1.0","null","<p></p>","null","","","","","","","","","","","","","","","","","","",""
"","do_trial","359","1143214","0.0-194.0-0.0","1094.0999999940395","","","","49","0,0,1","3","countryside","134","probe-216","0.2439738459146697","0.2707252675813072","0.40323032513004065","0","","","","","","","",""
"","html-keyboard-response","360","1144216","0.0-194.0-1.0","null","<p></p>","null","","","","","","","","","","","","","","","","","","",""
"","do_trial","361","1149657","0.0-195.0-0.0","875.8000000119209","","","","50","0,0,1","3","countryside","135","probe-161","0.3320132882459378","0.18164220388688448","0.5500240378497063","0","","","","","","","",""
"","html-keyboard-response","362","1150658","0.0-195.0-1.0","null","<p></p>","null","","","","","","","","","","","","","","","","","","",""
"","do_trial","363","1156720","0.0-196.0-0.0","null","","","","null","0,0,0","3","countryside","136","probe-187","0.3134246974567198","0.05126258204960946","0.45855822655904327","","","","","","","","",""
"","html-keyboard-response","364","1157722","0.0-196.0-1.0","null","<p></p>","null","","","","","","","","","","","","","","","","","","",""
"","do_trial","365","1162784","0.0-197.0-0.0","503.09999999403954","","","","50","0,0,0","3","countryside","137","probe-82","0.4140720374301795","0.10020810541190266","0.588970286620098","0","","","","","","","",""
"","html-keyboard-response","366","1163786","0.0-197.0-1.0","null","<p></p>","null","","","","","","","","","","","","","","","","","","",""
"","do_trial","367","1169279","0.0-198.0-0.0","933.7999999821186","","","","50","0,0,1","3","countryside","138","probe-189","0.3963212595528969","0.17148563326387314","0.6097340667182592","0","","","","","","","",""
"","html-keyboard-response","368","1170281","0.0-198.0-1.0","null","<p></p>","null","","","","","","","","","","","","","","","","","","",""
"","do_trial","369","1176824","0.0-199.0-0.0","1983.5999999940395","","","","49","0,0,1","3","countryside","139","probe-130","0.26980408288727054","0.13670628164914367","0.6261307548776494","0","","","","","","","",""
"","html-keyboard-response","370","1177826","0.0-199.0-1.0","null","<p></p>","null","","","","","","","","","","","","","","","","","","",""
"","do_trial","371","1183230","0.0-200.0-0.0","844.7000000178814","","","","50","0,0,1","3","countryside","140","probe-169","0.396519848133004","0.11790041455503372","0.567910080021438","0","","","","","","","",""
"","html-keyboard-response","372","1184231","0.0-200.0-1.0","null","<p></p>","null","","","","","","","","","","","","","","","","","","",""
"","do_trial","373","1189583","0.0-201.0-0.0","793.6000000238419","","","","51","0,0,1","3","countryside","141","probe-225","0.48086097472806394","0.1581310147803557","0.676957541604098","1","","","","","","","",""
"","html-keyboard-response","374","1190585","0.0-201.0-1.0","null","<p></p>","null","","","","","","","","","","","","","","","","","","",""
"","do_trial","375","1196038","0.0-202.0-0.0","893.6999999880791","","","","50","0,0,0","3","countryside","142","probe-50","0.42967752797799114","0.11384808651701368","0.7625707540498374","0","","","","","","","",""
"","html-keyboard-response","376","1197040","0.0-202.0-1.0","null","<p></p>","null","","","","","","","","","","","","","","","","","","",""
"","do_trial","377","1202342","0.0-203.0-0.0","741.2999999821186","","","","49","0,0,0","3","countryside","143","probe-16","0.3208654405400857","0.1687184264813763","0.7431267062087671","0","","","","","","","",""
"","html-keyboard-response","378","1203344","0.0-203.0-1.0","null","<p></p>","null","","","","","","","","","","","","","","","","","","",""
"","do_trial","379","1209527","0.0-204.0-0.0","1621.699999988079","","","","50","0,0,1","3","countryside","144","probe-226","0.259282437811767","0.256799154958293","0.5007365870306053","0","","","","","","","",""
"","html-keyboard-response","380","1210529","0.0-204.0-1.0","null","<p></p>","null","","","","","","","","","","","","","","","","","","",""
"","do_trial","381","1217024","0.0-205.0-0.0","1934.699999988079","","","","49","0,0,1","3","countryside","145","probe-199","0.24073060042810007","0.11481141132659434","0.545718102410425","0","","","","","","","",""
"","html-keyboard-response","382","1218025","0.0-205.0-1.0","null","<p></p>","null","","","","","","","","","","","","","","","","","","",""
"","do_trial","383","1223767","0.0-206.0-0.0","1180.9000000059605","","","","50","1,0,1","3","countryside","146","probe-55","0.3147321995022251","0.08475418412369981","0.5739457980237076","0","","","","","","","",""
"","html-keyboard-response","384","1224769","0.0-206.0-1.0","null","<p></p>","null","","","","","","","","","","","","","","","","","","",""
"","do_trial","385","1230303","0.0-207.0-0.0","971.5","","","","50","0,0,1","3","countryside","147","probe-107","0.35854642256998376","0.08255633464139425","0.5882446635720854","0","","","","","","","",""
"","html-keyboard-response","386","1231306","0.0-207.0-1.0","null","<p></p>","null","","","","","","","","","","","","","","","","","","",""
"","do_trial","387","1236470","0.0-208.0-0.0","603.7000000178814","","","","50","0,0,1","3","countryside","148","probe-112","0.27711608089895395","0.11939190960917527","0.6635122143544598","0","","","","","","","",""
"","html-keyboard-response","388","1237472","0.0-208.0-1.0","null","<p></p>","null","","","","","","","","","","","","","","","","","","",""
"","do_trial","389","1243014","0.0-209.0-0.0","982.4000000059605","","","","49","1,1,0","3","countryside","149","probe-42","0.26453748952331263","0.13212641363342223","0.6531376320492857","1","","","","","","","",""
"","html-keyboard-response","390","1244016","0.0-209.0-1.0","null","<p></p>","null","","","","","","","","","","","","","","","","","","",""
"","do_bye","391","1245521","0.0-210.0-0.0","null","","","","null","","","","","","","","","","","","","","","","",""
"","do_travel","392","1251522","0.0-211.0-0.0","null","","","","null","","","","","","","","","","","","","","","","",""
"","do_welcome","393","1253028","0.0-211.0-1.0","null","","","","null","","","","","","","","","","","","","","","","",""
"","do_trial","394","1259029","0.0-212.0-0.0","1439.5999999940395","","","","49","0,0,1","4","highway","150","probe-86","0.2547954836484954","0.06083440837010565","1","0","","","","","","","",""
"","html-keyboard-response","395","1260031","0.0-212.0-1.0","null","<p></p>","null","","","","","","","","","","","","","","","","","","",""
"","do_trial","396","1265012","0.0-213.0-0.0","423.59999999403954","","","","50","0,0,1","4","highway","151","probe-24","0.22746149963602488","0.06799719946945333","1","0","","","","","","","",""
"","html-keyboard-response","397","1266014","0.0-213.0-1.0","null","<p></p>","null","","","","","","","","","","","","","","","","","","",""
"","do_trial","398","1271527","0.0-214.0-0.0","950","","","","49","0,0,1","4","highway","152","probe-210","0.21444380182829306","0.22676460919579364","0.7629522121658588","0","","","","","","","",""
"","html-keyboard-response","399","1272529","0.0-214.0-1.0","null","<p></p>","null","","","","","","","","","","","","","","","","","","",""
"","do_trial","400","1277574","0.0-215.0-0.0","484.7999999821186","","","","50","1,0,1","4","highway","153","probe-83","0.27915627147782496","0.1646888361645653","0.6567705492224688","0","","","","","","","",""
"","html-keyboard-response","401","1278576","0.0-215.0-1.0","null","<p></p>","null","","","","","","","","","","","","","","","","","","",""
"","do_trial","402","1283894","0.0-216.0-0.0","755.1999999880791","","","","51","0,0,0","4","highway","154","probe-206","0.27962425798004","0.1164485962897136","0.6078447885576802","0","","","","","","","",""
"","html-keyboard-response","403","1284896","0.0-216.0-1.0","null","<p></p>","null","","","","","","","","","","","","","","","","","","",""
"","do_trial","404","1290014","0.0-217.0-0.0","558.2999999821186","","","","50","0,0,0","4","highway","155","probe-219","0.23588142562645315","0.11371872734223817","0.6545738824471831","0","","","","","","","",""
"","html-keyboard-response","405","1291016","0.0-217.0-1.0","null","<p></p>","null","","","","","","","","","","","","","","","","","","",""
"","do_trial","406","1296014","0.0-218.0-0.0","440.09999999403954","","","","49","0,0,0","4","highway","156","probe-152","0.3100538401492281","0.1132219345949957","0.567664248890994","0","","","","","","","",""
"","html-keyboard-response","407","1297016","0.0-218.0-1.0","null","<p></p>","null","","","","","","","","","","","","","","","","","","",""
"","do_trial","408","1302157","0.0-219.0-0.0","581.3999999761581","","","","50","0,1,0","4","highway","157","probe-139","0.4496103490359236","0.1216157949265706","0.5175562085750777","1","","","","","","","",""
"","html-keyboard-response","409","1303159","0.0-219.0-1.0","null","<p></p>","null","","","","","","","","","","","","","","","","","","",""
"","do_trial","410","1308829","0.0-220.0-0.0","1109.7999999821186","","","","51","1,0,1","4","highway","158","probe-148","0.3247202058229609","0.2508898660499087","0.6041624337587929","1","","","","","","","",""
"","html-keyboard-response","411","1309831","0.0-220.0-1.0","null","<p></p>","null","","","","","","","","","","","","","","","","","","",""
"","do_trial","412","1314940","0.0-221.0-0.0","549.3000000119209","","","","50","0,0,0","4","highway","159","probe-51","0.23895874800612096","0.12627439506150417","0.6466452149359662","0","","","","","","","",""
"","html-keyboard-response","413","1315942","0.0-221.0-1.0","null","<p></p>","null","","","","","","","","","","","","","","","","","","",""
"","do_trial","414","1321356","0.0-222.0-0.0","853.8999999761581","","","","49","0,0,1","4","highway","160","probe-180","0.299497510990474","0.12637231983141056","0.5477072298863814","0","","","","","","","",""
"","html-keyboard-response","415","1322359","0.0-222.0-1.0","null","<p></p>","null","","","","","","","","","","","","","","","","","","",""
"","do_trial","416","1328108","0.0-223.0-0.0","1188.5999999940395","","","","50","1,1,0","4","highway","161","probe-77","0.23916351984632123","0.13313600738296727","0.5806480779991045","1","","","","","","","",""
"","html-keyboard-response","417","1329110","0.0-223.0-1.0","null","<p></p>","null","","","","","","","","","","","","","","","","","","",""
"","do_trial","418","1334189","0.0-224.0-0.0","515.9000000059605","","","","50","0,1,0","4","highway","162","probe-79","0.15841095670801555","0.31653986642148957","0.5375179809554522","1","","","","","","","",""
"","html-keyboard-response","419","1335191","0.0-224.0-1.0","null","<p></p>","null","","","","","","","","","","","","","","","","","","",""
"","do_trial","420","1340421","0.0-225.0-0.0","662.8000000119209","","","","49","0,0,0","4","highway","163","probe-47","0.13825823515254398","0.26568580035945916","0.40697320228217415","0","","","","","","","",""
"","html-keyboard-response","421","1341422","0.0-225.0-1.0","null","<p></p>","null","","","","","","","","","","","","","","","","","","",""
"","do_trial","422","1346724","0.0-226.0-0.0","740.6000000238419","","","","50","0,1,0","4","highway","164","probe-84","0.05356293065489637","0.3410627751535368","0.388167955137347","1","","","","","","","",""
"","html-keyboard-response","423","1347726","0.0-226.0-1.0","null","<p></p>","null","","","","","","","","","","","","","","","","","","",""
"","do_trial","424","1353115","0.0-227.0-0.0","828.5999999940395","","","","51","0,0,1","4","highway","165","probe-09","0.15066601551382822","0.4466486505027254","0.35953409201209924","1","","","","","","","",""
"","html-keyboard-response","425","1354117","0.0-227.0-1.0","null","<p></p>","null","","","","","","","","","","","","","","","","","","",""
"","do_trial","426","1359148","0.0-228.0-0.0","470.2000000178814","","","","49","0,0,0","4","highway","166","probe-39","0.26675671522156075","0.4548071771381128","0.30654922638278415","0","","","","","","","",""
"","html-keyboard-response","427","1360150","0.0-228.0-1.0","null","<p></p>","null","","","","","","","","","","","","","","","","","","",""
"","do_trial","428","1365658","0.0-229.0-0.0","950.8000000119209","","","","49","1,1,1","4","highway","167","probe-230","0.14819913533347318","0.4677955157852578","0.2801766560528418","1","","","","","","","",""
"","html-keyboard-response","429","1366660","0.0-229.0-1.0","null","<p></p>","null","","","","","","","","","","","","","","","","","","",""
"","do_trial","430","1371970","0.0-230.0-0.0","751.5","","","","51","0,0,0","4","highway","168","probe-01","0.178721965999504","0.46732349737018897","0.36791048409136695","0","","","","","","","",""
"","html-keyboard-response","431","1372973","0.0-230.0-1.0","null","<p></p>","null","","","","","","","","","","","","","","","","","","",""
"","do_trial","432","1378170","0.0-231.0-0.0","633.4000000059605","","","","49","1,0,1","4","highway","169","probe-67","0.16862221979114464","0.6331713704943696","0.3952648640255266","1","","","","","","","",""
"","html-keyboard-response","433","1379172","0.0-231.0-1.0","null","<p></p>","null","","","","","","","","","","","","","","","","","","",""
"","do_trial","434","1384354","0.0-232.0-0.0","622.3000000119209","","","","50","0,1,0","4","highway","170","probe-27","0.1062997174008564","0.6812769074280335","0.31511879974810386","1","","","","","","","",""
"","html-keyboard-response","435","1385356","0.0-232.0-1.0","null","<p></p>","null","","","","","","","","","","","","","","","","","","",""
"","do_trial","436","1390522","0.0-233.0-0.0","607.2000000178814","","","","49","1,0,0","4","highway","171","probe-164","0.24716635891895658","0.546828632689541","0.29423561754474375","1","","","","","","","",""
"","html-keyboard-response","437","1391526","0.0-233.0-1.0","null","<p></p>","null","","","","","","","","","","","","","","","","","","",""
"","do_trial","438","1397268","0.0-234.0-0.0","1184","","","","50","1,1,1","4","highway","172","probe-198","0.17583123997591166","0.7115921121442459","0.5028437351184288","1","","","","","","","",""
"","html-keyboard-response","439","1398270","0.0-234.0-1.0","null","<p></p>","null","","","","","","","","","","","","","","","","","","",""
"","do_trial","440","1403411","0.0-235.0-0.0","579.5","","","","49","0,1,0","4","highway","173","probe-70","0.13442248835500645","0.7142262180543975","0.4606458606099597","0","","","","","","","",""
"","html-keyboard-response","441","1404413","0.0-235.0-1.0","null","<p></p>","null","","","","","","","","","","","","","","","","","","",""
"","do_trial","442","1409539","0.0-236.0-0.0","566","","","","49","1,1,0","4","highway","174","probe-212","0.08636181354892948","0.5969007711808992","0.28859906857418094","1","","","","","","","",""
"","html-keyboard-response","443","1410541","0.0-236.0-1.0","null","<p></p>","null","","","","","","","","","","","","","","","","","","",""
"","do_trial","444","1415755","0.0-237.0-0.0","652.4000000059605","","","","50","0,0,1","4","highway","175","probe-05","0.06490960070114911","0.6378192648617956","0.2760678698401014","0","","","","","","","",""
"","html-keyboard-response","445","1416757","0.0-237.0-1.0","null","<p></p>","null","","","","","","","","","","","","","","","","","","",""
"","do_trial","446","1422723","0.0-238.0-0.0","1405","","","","51","0,0,1","4","highway","176","probe-48","0.24750511971214673","0.6256981978119585","0.37646495429703924","1","","","","","","","",""
"","html-keyboard-response","447","1423725","0.0-238.0-1.0","null","<p></p>","null","","","","","","","","","","","","","","","","","","",""
"","do_trial","448","1429009","0.0-239.0-0.0","724.8000000119209","","","","51","0,0,0","4","highway","177","probe-205","0.12789016770270953","0.6436768700085022","0.2552272607517266","0","","","","","","","",""
"","html-keyboard-response","449","1430011","0.0-239.0-1.0","null","<p></p>","null","","","","","","","","","","","","","","","","","","",""
"","do_trial","450","1435210","0.0-240.0-0.0","639","","","","50","0,1,0","4","highway","178","probe-34","0.07886719170075641","0.5699807778605778","0.2848406526717734","1","","","","","","","",""
"","html-keyboard-response","451","1436212","0.0-240.0-1.0","null","<p></p>","null","","","","","","","","","","","","","","","","","","",""
"","do_trial","452","1441337","0.0-241.0-0.0","566.2000000178814","","","","49","0,0,0","4","highway","179","probe-135","0.06654188013866788","0.6160317474059843","0.1362230277517736","0","","","","","","","",""
"","html-keyboard-response","453","1442339","0.0-241.0-1.0","null","<p></p>","null","","","","","","","","","","","","","","","","","","",""
"","do_trial","454","1448066","0.0-242.0-0.0","1166.9000000059605","","","","50","0,1,0","4","highway","180","probe-195","0.3263568639526629","0.6347779095201319","0.2579232910863666","1","","","","","","","",""
"","html-keyboard-response","455","1449067","0.0-242.0-1.0","null","<p></p>","null","","","","","","","","","","","","","","","","","","",""
"","do_trial","456","1454299","0.0-243.0-0.0","670.4000000059605","","","","50","0,1,0","4","highway","181","probe-204","0.2637674869398377","0.6377971784042352","0.34008307007717725","1","","","","","","","",""
"","html-keyboard-response","457","1455301","0.0-243.0-1.0","null","<p></p>","null","","","","","","","","","","","","","","","","","","",""
"","do_trial","458","1460563","0.0-244.0-0.0","702.4000000059605","","","","49","0,1,1","4","highway","182","probe-14","0.26590335537243287","0.5641484061074334","0.38085683880195736","0","","","","","","","",""
"","html-keyboard-response","459","1461565","0.0-244.0-1.0","null","<p></p>","null","","","","","","","","","","","","","","","","","","",""
"","do_trial","460","1467098","0.0-245.0-0.0","974.1999999880791","","","","51","0,1,1","4","highway","183","probe-53","0.09543696261925588","0.5470302171616898","0.35447081920659346","1","","","","","","","",""
"","html-keyboard-response","461","1468100","0.0-245.0-1.0","null","<p></p>","null","","","","","","","","","","","","","","","","","","",""
"","do_trial","462","1474162","0.0-246.0-0.0","null","","","","null","0,0,0","4","highway","184","probe-173","0.13520489709603276","0.5325157208592683","0.21018950653248883","","","","","","","","",""
"","html-keyboard-response","463","1475164","0.0-246.0-1.0","null","<p></p>","null","","","","","","","","","","","","","","","","","","",""
"","do_trial","464","1480289","0.0-247.0-0.0","559.2999999821186","","","","51","0,1,0","4","highway","185","probe-104","0.1955179948308858","0.5110185568487968","0.059275557226021895","0","","","","","","","",""
"","html-keyboard-response","465","1481291","0.0-247.0-1.0","null","<p></p>","null","","","","","","","","","","","","","","","","","","",""
"","do_trial","466","1486466","0.0-248.0-0.0","615.5","","","","50","0,1,0","4","highway","186","probe-207","0.20595341943242929","0.553075406246113","0.07681311991882608","1","","","","","","","",""
"","html-keyboard-response","467","1487467","0.0-248.0-1.0","null","<p></p>","null","","","","","","","","","","","","","","","","","","",""
"","do_trial","468","1492625","0.0-249.0-0.0","599.2000000178814","","","","49","0,1,0","4","highway","187","probe-183","0.2299346290298914","0.7109205623228129","0.09469817801968003","0","","","","","","","",""
"","html-keyboard-response","469","1493628","0.0-249.0-1.0","null","<p></p>","null","","","","","","","","","","","","","","","","","","",""
"","do_trial","470","1498856","0.0-250.0-0.0","668.9000000059605","","","","50","0,1,0","4","highway","188","probe-229","0.25509630137027034","0.5093349501754564","0.2096749418105022","1","","","","","","","",""
"","html-keyboard-response","471","1499858","0.0-250.0-1.0","null","<p></p>","null","","","","","","","","","","","","","","","","","","",""
"","do_trial","472","1504977","0.0-251.0-0.0","556.5999999940395","","","","51","0,0,1","4","highway","189","probe-151","0.28046172694069305","0.5475408160057221","0.23906248633473756","1","","","","","","","",""
"","html-keyboard-response","473","1505979","0.0-251.0-1.0","null","<p></p>","null","","","","","","","","","","","","","","","","","","",""
"","do_bye","474","1507484","0.0-252.0-0.0","null","","","","null","","","","","","","","","","","","","","","","",""
"","do_travel","475","1513488","0.0-253.0-0.0","null","","","","null","","","","","","","","","","","","","","","","",""
"","do_welcome","476","1514994","0.0-253.0-1.0","null","","","","null","","","","","","","","","","","","","","","","",""
"","do_trial","477","1520754","0.0-254.0-0.0","1201","","","","51","0,1,0","5","forest","190","probe-140","0.19888930930254514","1","0.28514348877320805","0","","","","","","","",""
"","html-keyboard-response","478","1521756","0.0-254.0-1.0","null","<p></p>","null","","","","","","","","","","","","","","","","","","",""
"","do_trial","479","1526754","0.0-255.0-0.0","437.89999997615814","","","","50","0,1,0","5","forest","191","probe-155","0.09492162058899162","1","0.3098567432112031","1","","","","","","","",""
"","html-keyboard-response","480","1527755","0.0-255.0-1.0","null","<p></p>","null","","","","","","","","","","","","","","","","","","",""
"","do_trial","481","1532809","0.0-256.0-0.0","491.90000000596046","","","","50","0,1,0","5","forest","192","probe-177","0.050942492768112996","0.7834120147929551","0.2234311993629094","1","","","","","","","",""
"","html-keyboard-response","482","1533811","0.0-256.0-1.0","null","<p></p>","null","","","","","","","","","","","","","","","","","","",""
"","do_trial","483","1538849","0.0-257.0-0.0","478.80000001192093","","","","49","0,1,0","5","forest","193","probe-144","0.15580377263567285","0.6653207394259293","0.376600515745658","0","","","","","","","",""
"","html-keyboard-response","484","1539851","0.0-257.0-1.0","null","<p></p>","null","","","","","","","","","","","","","","","","","","",""
"","do_trial","485","1545761","0.0-258.0-0.0","1351","","","","49","0,1,1","5","forest","194","probe-102","0.14911001846732239","0.8409996399544803","0.3197209353124842","0","","","","","","","",""
"","html-keyboard-response","486","1546763","0.0-258.0-1.0","null","<p></p>","null","","","","","","","","","","","","","","","","","","",""
"","do_trial","487","1552280","0.0-259.0-0.0","957.9000000059605","","","","50","0,1,0","5","forest","195","probe-29","0.09080493667880722","0.8018955045429484","0.307584096406135","1","","","","","","","",""
"","html-keyboard-response","488","1553283","0.0-259.0-1.0","null","<p></p>","null","","","","","","","","","","","","","","","","","","",""
"","do_trial","489","1559200","0.0-260.0-0.0","1357.5","","","","51","0,1,0","5","forest","196","probe-132","0.07173582808657904","0.6442725915873969","0.35087257457604865","0","","","","","","","",""
"","html-keyboard-response","490","1560202","0.0-260.0-1.0","null","<p></p>","null","","","","","","","","","","","","","","","","","","",""
"","do_trial","491","1565791","0.0-261.0-0.0","1026.699999988079","","","","49","0,0,1","5","forest","197","probe-74","0.11660077010742109","0.6518640558872536","0.41464943997489","0","","","","","","","",""
"","html-keyboard-response","492","1566793","0.0-261.0-1.0","null","<p></p>","null","","","","","","","","","","","","","","","","","","",""
"","do_trial","493","1572088","0.0-262.0-0.0","736.0999999940395","","","","50","0,0,0","5","forest","198","probe-85","0.09642653068028605","0.6463163900903354","0.46585572724709834","0","","","","","","","",""
"","html-keyboard-response","494","1573089","0.0-262.0-1.0","null","<p></p>","null","","","","","","","","","","","","","","","","","","",""
"","do_trial","495","1578297","0.0-263.0-0.0","645.8000000119209","","","","49","0,0,0","5","forest","199","probe-92","0.08912434949998083","0.7893059969315224","0.3696210566709031","0","","","","","","","",""
"","html-keyboard-response","496","1579299","0.0-263.0-1.0","null","<p></p>","null","","","","","","","","","","","","","","","","","","",""
"","do_trial","497","1584529","0.0-264.0-0.0","668.8000000119209","","","","50","0,1,0","5","forest","200","probe-110","0.13981210670042196","0.7215463058636157","0.25351636104075115","1","","","","","","","",""
"","html-keyboard-response","498","1585531","0.0-264.0-1.0","null","<p></p>","null","","","","","","","","","","","","","","","","","","",""
"","do_trial","499","1590720","0.0-265.0-0.0","628.5","","","","51","0,1,0","5","forest","201","probe-117","0.0689985257014469","0.6775793367813219","0.13695295496316606","0","","","","","","","",""
"","html-keyboard-response","500","1591722","0.0-265.0-1.0","null","<p></p>","null","","","","","","","","","","","","","","","","","","",""
"","do_trial","501","1596905","0.0-266.0-0.0","620.2000000178814","","","","50","0,0,0","5","forest","202","probe-136","0.43205873144748835","0.4852225162688459","0.14619880373374652","0","","","","","","","",""
"","html-keyboard-response","502","1597907","0.0-266.0-1.0","null","<p></p>","null","","","","","","","","","","","","","","","","","","",""
"","do_trial","503","1603015","0.0-267.0-0.0","547.0999999940395","","","","50","0,0,0","5","forest","203","probe-17","0.49254735281888273","0.347970056487215","0.13708202666090988","0","","","","","","","",""
"","html-keyboard-response","504","1604018","0.0-267.0-1.0","null","<p></p>","null","","","","","","","","","","","","","","","","","","",""
"","do_trial","505","1609168","0.0-268.0-0.0","583.7000000178814","","","","51","0,0,0","5","forest","204","probe-115","0.5279958491999269","0.3158021053675592","0.3463443688284281","0","","","","","","","",""
"","html-keyboard-response","506","1610171","0.0-268.0-1.0","null","<p></p>","null","","","","","","","","","","","","","","","","","","",""
"","do_trial","507","1615448","0.0-269.0-0.0","717.8000000119209","","","","49","0,0,0","5","forest","205","probe-165","0.5982447233442655","0.14302863526648682","0.3773089347884243","0","","","","","","","",""
"","html-keyboard-response","508","1616450","0.0-269.0-1.0","null","<p></p>","null","","","","","","","","","","","","","","","","","","",""
"","do_trial","509","1621671","0.0-270.0-0.0","660.7000000178814","","","","49","0,0,0","5","forest","206","probe-127","0.5696272377967828","0.11558451427483973","0.42437105582354356","0","","","","","","","",""
"","html-keyboard-response","510","1622673","0.0-270.0-1.0","null","<p></p>","null","","","","","","","","","","","","","","","","","","",""
"","do_trial","511","1627742","0.0-271.0-0.0","506.19999998807907","","","","50","0,0,0","5","forest","207","probe-186","0.565925771463607","0.24952031391423757","0.351096549287841","0","","","","","","","",""
"","html-keyboard-response","512","1628744","0.0-271.0-1.0","null","<p></p>","null","","","","","","","","","","","","","","","","","","",""
"","do_trial","513","1634040","0.0-272.0-0.0","735.5","","","","50","0,0,1","5","forest","208","probe-188","0.735475677204337","0.17741636257153698","0.3505405313988252","0","","","","","","","",""
"","html-keyboard-response","514","1635042","0.0-272.0-1.0","null","<p></p>","null","","","","","","","","","","","","","","","","","","",""
"","do_trial","515","1640335","0.0-273.0-0.0","731.8000000119209","","","","50","0,0,0","5","forest","209","probe-194","0.5981175667810702","0.18869801456815227","0.20558899734666014","0","","","","","","","",""
"","html-keyboard-response","516","1641337","0.0-273.0-1.0","null","<p></p>","null","","","","","","","","","","","","","","","","","","",""
"","do_trial","517","1646905","0.0-274.0-0.0","1003","","","","50","1,0,1","5","forest","210","probe-43","0.5847615817027622","0.2217143816326082","0.20874183215928083","0","","","","","","","",""
"","html-keyboard-response","518","1647907","0.0-274.0-1.0","null","<p></p>","null","","","","","","","","","","","","","","","","","","",""
"","do_trial","519","1653182","0.0-275.0-0.0","716.2999999821186","","","","50","1,0,0","5","forest","211","probe-56","0.549271530654062","0.10155737054477042","0.25601623957047753","0","","","","","","","",""
"","html-keyboard-response","520","1654184","0.0-275.0-1.0","null","<p></p>","null","","","","","","","","","","","","","","","","","","",""
"","do_trial","521","1659495","0.0-276.0-0.0","748.1999999880791","","","","50","0,0,0","5","forest","212","probe-197","0.5471751830132788","0.08009786923543492","0.2915949748281689","0","","","","","","","",""
"","html-keyboard-response","522","1660498","0.0-276.0-1.0","null","<p></p>","null","","","","","","","","","","","","","","","","","","",""
"","do_trial","523","1665751","0.0-277.0-0.0","694.6999999880791","","","","50","1,0,0","5","forest","213","probe-125","0.5903041648990337","0.06573796311125517","0.2699479939773899","0","","","","","","","",""
"","html-keyboard-response","524","1666752","0.0-277.0-1.0","null","<p></p>","null","","","","","","","","","","","","","","","","","","",""
