"success","trial_type","trial_index","time_elapsed","internal_node_id","rt","stimulus","key_press","subject_id","response","choice_outcomes","context_n","context_img_id","trial_n","probe_img_id","pR_red","pR_white","pR_black","outcome","contextArray_ind","validImageProbes","invalidImageProbes","pRew_Red","pRew_White","pRew_Black","availableForMemProbe","choice_blocks"
"true","fullscreen","0","3874","0.0-0.0","","","","","","","","","","","","","","","","","","","","","",""
"","pavlovia","1","3879","0.0-1.0","","","","","","","","","","","","","","","","","","","","","",""
"","html-keyboard-response","2","20913","0.0-2.0","17030.06500005722","<div class='center'><p>Welcome! This is the first day of the experiment which will last ~30 minutes. In this experiment, you are the head captain of a pirate ship traveling around the world to different places. You will complete several different tasks during this experiment. Here is an overview of these tasks:</p><br><p>Day 1</p><p>1. Tutorial and quiz</p><p>2. Pick a pirate game in 6 different places</p><br><p>Day 2</p><p>3. Pick a pirate game and memory game</p><p>4. Final questions and payment</p><br><p>If you complete the entire experiment, you will receive $15 and a possible bonus payment.</p><p><b>[Press the space bar to begin the tutorial]</b></p></div>","32","613980275f88b5f77d6c199b","","","","","","","","","","","","","","","","","",""
"","html-keyboard-response","3","27885","0.0-3.0","6969.395000021905","<div class='center'><p>You are the head captain of a pirate ship.</p><p> Your pirates rob other ships as they leave the marketplace port.</p> These ships have just sold all their goods at the marketplace, so they have lots and lots of gold on them.</p><p><img src='run_exp/static/images/ship_center.png' height='400'></p><p><b>[Press the space bar to continue]</b></p></div>","32","","","","","","","","","","","","","","","","","","",""
"","html-keyboard-response","4","42354","0.0-4.0","14467.460000072606","<div class='center'><p>As the head captain, you do not have to rob any ships yourself.</p><p>You get to choose which pirate you want to rob the next ship. </p><p>If they are successful at robbing the ship, then you will get gold coins.</p><p> If they are not successful, then you will get no gold coins.</p><p> The more coins you collect, the more bonus money you will win. So, choose your pirate wisely.</p><p><img src='run_exp/static/images/goal.png' height='400'></p><p><b>[Press the space bar to continue]</b></p><div>","32","","","","","","","","","","","","","","","","","","",""
"","html-keyboard-response","5","168906","0.0-5.0","126546.32500000298","<div class='center'><p>Even the most skilled pirate will not be able to rob EVERY ship.</p><p> Some ships will have very strong defenses against attacks.</p><p> For example, blue beard, here,  is very good at robbing ships.</p><p> You can press the <b>‘1’</b> button on the keyboard to choose him.</p><p> Try choosing him 10 times to see how often he is successful at robbing ships. </p><p><img src='run_exp/static/images/blue.png' height='500'></p></div>","49","","","","","","","","","","","","","","","","","","",""
"","html-keyboard-response","6","170413","0.0-6.0","null","<br><br><br><br><p><img src='run_exp/static/images/blue_win.png' height='500'></p>","null","","","","","","","","","","","","","","","","","","",""
"","html-keyboard-response","7","174111","0.0-7.0","3696.765000000596","<br><br><br><br><p><img src='run_exp/static/images/blue.png' height='500'></p>","49","","","","","","","","","","","","","","","","","","",""
"","html-keyboard-response","8","175618","0.0-8.0","null","<br><br><br><br><p><img src='run_exp/static/images/blue_win.png' height='500'></p>","null","","","","","","","","","","","","","","","","","","",""
"","html-keyboard-response","9","177591","0.0-9.0","1971.2800000561401","<br><br><br><br><p><img src='run_exp/static/images/blue.png' height='500'></p>","49","","","","","","","","","","","","","","","","","","",""
"","html-keyboard-response","10","179098","0.0-10.0","null","<br><br><br><br><p><img src='run_exp/static/images/blue_win.png' height='500'></p>","null","","","","","","","","","","","","","","","","","","",""
"","html-keyboard-response","11","180683","0.0-11.0","1584.3350000213832","<br><br><br><br><p><img src='run_exp/static/images/blue.png' height='500'></p>","49","","","","","","","","","","","","","","","","","","",""
"","html-keyboard-response","12","182190","0.0-12.0","null","<br><br><br><br><p><img src='run_exp/static/images/blue_no_win.png' height='500'></p>","null","","","","","","","","","","","","","","","","","","",""
"","html-keyboard-response","13","183304","0.0-13.0","1112.8699999535456","<br><br><br><br><p><img src='run_exp/static/images/blue.png' height='500'></p>","49","","","","","","","","","","","","","","","","","","",""
"","html-keyboard-response","14","184807","0.0-14.0","null","<br><br><br><br><p><img src='run_exp/static/images/blue_win.png' height='500'></p>","null","","","","","","","","","","","","","","","","","","",""
"","html-keyboard-response","15","186579","0.0-15.0","1770.600000047125","<br><br><br><br><p><img src='run_exp/static/images/blue.png' height='500'></p>","49","","","","","","","","","","","","","","","","","","",""
"","html-keyboard-response","16","188082","0.0-16.0","null","<br><br><br><br><p><img src='run_exp/static/images/blue_win.png' height='500'></p>","null","","","","","","","","","","","","","","","","","","",""
"","html-keyboard-response","17","189204","0.0-17.0","1120.3299999469891","<br><br><br><br><p><img src='run_exp/static/images/blue.png' height='500'></p>","49","","","","","","","","","","","","","","","","","","",""
"","html-keyboard-response","18","190708","0.0-18.0","null","<br><br><br><br><p><img src='run_exp/static/images/blue_win.png' height='500'></p>","null","","","","","","","","","","","","","","","","","","",""
"","html-keyboard-response","19","191192","0.0-19.0","482.9600000521168","<br><br><br><br><p><img src='run_exp/static/images/blue.png' height='500'></p>","49","","","","","","","","","","","","","","","","","","",""
"","html-keyboard-response","20","192698","0.0-20.0","null","<br><br><br><br><p><img src='run_exp/static/images/blue_no_win.png' height='500'></p>","null","","","","","","","","","","","","","","","","","","",""
"","html-keyboard-response","21","193111","0.0-21.0","411.76499996799976","<br><br><br><br><p><img src='run_exp/static/images/blue.png' height='500'></p>","49","","","","","","","","","","","","","","","","","","",""
"","html-keyboard-response","22","194618","0.0-22.0","null","<br><br><br><br><p><img src='run_exp/static/images/blue_win.png' height='500'></p>","null","","","","","","","","","","","","","","","","","","",""
"","html-keyboard-response","23","194974","0.0-23.0","355.4249999579042","<br><br><br><br><p><img src='run_exp/static/images/blue.png' height='500'></p>","49","","","","","","","","","","","","","","","","","","",""
"","html-keyboard-response","24","196481","0.0-24.0","null","<br><br><br><br><p><img src='run_exp/static/images/blue_win.png' height='500'></p>","null","","","","","","","","","","","","","","","","","","",""
"","html-keyboard-response","25","200455","0.0-25.0","3973.255000077188","<div class='center'><p> See, he was successful at robbing the ships most of the time but not every time. </p><p><b>[Press the space bar to continue]</b></p></div>","32","","","","","","","","","","","","","","","","","","",""
"","html-keyboard-response","26","214824","0.0-26.0","14366.269999998622","<div class='center'><p>In the game, you will get to choose which of three pirates you want to rob the next ship. <p>Press the <b>‘1’</b> button on your keyboard to pick the pirate with the red beard.</p><p> Press <b>‘2’</b> to pick the pirate with the white beard.</p><p> Press <b>‘3’</b> to pick the pirate with the black beard.</p><p>Try picking a pirate now!</p><p><img src='run_exp/static/images/all_pirates.png' height='500'></p></div>","51","","","","","","","","","","","","","","","","","","",""
"","html-keyboard-response","27","216876","0.0-27.0-0.0","2049.4549999712035","<div class='center'><p>This pirate was successful at robbing the ship!</p><p><img src='run_exp/static/images/black_win.png' height='500'></p><p><b>[Press the space bar to continue]</b></p></div>","32","","","","","","","","","","","","","","","","","","",""
"","html-keyboard-response","28","219879","0.0-27.0-1.0","3001.4850000152364","<div class='center'><p>Now try choosing another</p><p><img src='run_exp/static/images/all_pirates.png' height='500'></p></div>","49","","","","","","","","","","","","","","","","","","",""
"","html-keyboard-response","29","222348","0.0-28.0-0.0","2466.885000001639","<div class='center'><p>This pirate was not successful at robbing the ship!</p><p><img src='run_exp/static/images/red_no_win.png' height='500'></p><p><b>[Press the space bar to continue]</b></p></div>","32","","","","","","","","","","","","","","","","","","",""
"","html-keyboard-response","30","227338","0.0-29.0-0.0","4989.150000037625","<div class='center'><p>You’ll stop at these 6 places on your journey.</p><p><img src='run_exp/static/images/all_contexts.png' height='500'></p><p><b>[Press the space bar to continue]</b></p></div>","32","","","","","","","","","","","","","","","","","","",""
"","html-keyboard-response","31","234616","0.0-29.0-1.0","7275.9499999228865","<div class='center'><p>How good a pirate is at robbing ships will depend on the current place.</p><p> Some pirates will have been to the place before, and will have more experience robbing ships there.</p><p>So, they will be more successful at stealing gold and bringing it back to you.</p><p><b>[Press the space bar to continue]</b></p></div>","32","","","","","","","","","","","","","","","","","","",""
"","html-keyboard-response","32","263467","0.0-29.0-2.0","28848.445000010543","<div class='center'><p>How successful a pirate is at robbing ships can also change in a place.<p> Ships may hear about the pirates coming and will improve their defenses. This may make it more difficult to rob them.</p><p> Ships may also grow lazy and lower their defenses. This may make it easier to rob them.</p><br><p>Things are always changing on the high seas! So, try your best to pay attention!</p><p><img src='run_exp/static/images/contingency.png' height='500'></p><p><b>[Press the space bar to continue]</b></p></div>","32","","","","","","","","","","","","","","","","","","",""
"","html-keyboard-response","33","309668","0.0-29.0-3.0","46197.580000036396","<div class='center'><p>Once you choose a pirate to rob a ship, you’ll be shown the ship they are robbing.</p><p>The ship will have a picture of the item they sold at the marketplace.</p><p> Try your best to remember the ship and where you saw the ship.</p><p> You’ll have to remember this for later, and remembering this correctly will help you win more bonus money!</p><p>You can remember the ship by remembering the item they sold at the marketplace</p><p>A helpful strategy is to try to come up with a story of the chosen pirate and ship’s item interacting with the scene.</p><p> For example, a ship might have sold travel mugs and you could imagine red beard walking through the city with a travel mug. </p><p>Or imagine an apple falling from a tree into white beard's hands in the forest.</p><p><img src='run_exp/static/images/example_probe.png' height='500'></p><p><b>[Press the space bar to continue]</b></p></div>","32","","","","","","","","","","","","","","","","","","",""
"","html-keyboard-response","34","320477","0.0-29.0-4.0","10807.645000051707","<div class='center'><p>If you don’t make your choice fast enough, you’ll have to wait a few seconds before you can make another one. </p><p>You can’t win more gold. You just have to sit and wait.</p><p><img src='run_exp/static/images/hurry_up.png' height='500'></p><p><b>[Press the space bar to continue]</b></p></div>","32","","","","","","","","","","","","","","","","","","",""
"","html-keyboard-response","35","369551","0.0-29.0-5.0","49071.08500006143","<div class='center'><p>Again, you have two important things to do: </p><b><p> 1. Pick the pirate who you think will be most successful at robbing the next ship.</p></b><b><p> 2. Remember where a pirate robbed a ship.</p> </b><p>Both are important in determining how much bonus money you’ll win.</p><br><p>Let’s try a practice game. The game will start by showing you the pirates. First pick a pirate using the <b> 1, 2, 3 </b> buttons on your keyboard. When you are shown a ship, try to remember the place you’re in by making up a story.</p><p> You only have 3 seconds to pick a pirate, so please make a choice quickly! If you are too slow, you’ll have to wait a bit during the time out.</p><p> Don’t feel rushed, but please do try to make a choice every time.</p><p>How good a pirate is at robbing a ship will change depending on the place they are in and how good the defenses are of the ship.</p> <p>This is just a practice game, so you’re not playing for money. </p><p>You’ll receive a bag which may or may not contain gold coins.</p><p> In the real game, though, you’ll be able to see whether or not you received the gold coins.</p><p> Good luck, remember press <b>'1'</b> to choose red beard, <b>'2'</b> to choose white beard, and <b>'3'</b> to choose black beard</p><p><b>[Press the space bar to begin the practice game]</b></p></div>","32","","","","","","","","","","","","","","","","","","",""
"","do_trial_prac","36","375758","0.0-29.0-6.0","1689.5550000481308","","","","50","","","","","","","","","","","","","","","","",""
"","do_trial_prac","37","381487","0.0-29.0-7.0","1217.3099999781698","","","","49","","","","","","","","","","","","","","","","",""
"","do_trial_prac","38","386928","0.0-29.0-8.0","927.7350000338629","","","","50","","","","","","","","","","","","","","","","",""
"","do_trial_prac","39","391923","0.0-29.0-9.0","482.6149999862537","","","","51","","","","","","","","","","","","","","","","",""
"","do_trial_prac","40","397157","0.0-29.0-10.0","720.7450000569224","","","","49","","","","","","","","","","","","","","","","",""
"","html-keyboard-response","41","408644","0.0-29.0-11.0","11485.430000000633","<div class='center'><p>Great job on the practice game!</p><p> Now, you will be asked you some true or false questions to make sure you really understand the rules of the game.</p><p> Press <b>'1'</b> on the keyboard for true and press <b>'2'</b> for false.</p><p><b>[Press the space bar to begin the quiz]</b></p></div>","32","","","","","","","","","","","","","","","","","","",""
"","html-keyboard-response","42","412880","0.0-29.0-12.0","4235.184999997728","<div class='center'><p>You win bonus money by making choices as fast as possible.</p><p>Press 1 for true and press  2 for false.</p></div>","50","","","","","","","","","","","","","","","","","","",""
"","html-keyboard-response","43","414591","0.0-30.0-0.0","1709.000000031665","<br><br><br><br><p>That's correct!</p> <p><b>[press the space bar to continue with the quiz]</b></p>","32","","","","","","","","","","","","","","","","","","",""
"","html-keyboard-response","44","421223","0.0-30.0-1.0","6630.15500002075","<div class='center'><p>You press the <b>‘3’</b> button on the keyboard to choose the red bearded pirate? </p><p>Press 1 for true and press  2 for false.</p></div>","50","","","","","","","","","","","","","","","","","","",""
"","html-keyboard-response","45","422026","0.0-31.0-0.0","801.0350000113249","<br><br><br><br><p>That's correct!</p> <p><b>[press the space bar to continue with the quiz]</b></p>","32","","","","","","","","","","","","","","","","","","",""
"","html-keyboard-response","46","425439","0.0-31.0-1.0","3412.2450000140816","<div class='center'><p>A pirate will always be equally successful at robbing ships in each place</p><p>Press 1 for true and press  2 for false.</p></div>","50","","","","","","","","","","","","","","","","","","",""
"","html-keyboard-response","47","426159","0.0-32.0-0.0","717.975000035949","<br><br><br><br><p>That's correct!</p> <p><b>[press the space bar to continue with the quiz]</b></p>","32","","","","","","","","","","","","","","","","","","",""
"","html-keyboard-response","48","428656","0.0-32.0-1.0","2495.240000076592","<div class='center'><p>You should remember the place where a pirate robbed a ship.</p><p>Press 1 for true and press  2 for false.</p></div>","49","","","","","","","","","","","","","","","","","","",""
"","html-keyboard-response","49","429764","0.0-33.0-0.0","1097.2449999535456","<br><br><br><br><p>That's correct!</p> <p><b>[press the space bar to continue with the quiz]</b></p>","32","","","","","","","","","","","","","","","","","","",""
"","html-keyboard-response","50","432456","0.0-34.0-0.0","2687.7699999604374","<br><br><br><br><p>Good job! You’re now ready to move on to the real game!</p> <p><br>[press the space bar to begin!]</br></p>","32","","","","","","","","","","","","","","","","","","",""
"","do_welcome","51","433968","0.0-35.0-0.0","null","","","","null","","","","","","","","","","","","","","","","",""
"","do_trial","52","440038","0.0-36.0-0.0","1509.9649999756366","","","","49","1,0,0","0","city","0","probe-195","1","0.4","0.1","1","","","","","","","",""
"","do_trial","53","445630","0.0-37.0-0.0","1033.6899999529123","","","","51","1,1,0","0","city","1","probe-152","1","0.34948535263085817","0.07283782905448143","0","","","","","","","",""
"","do_trial","54","450905","0.0-38.0-0.0","720.7450000569224","","","","50","1,0,0","0","city","2","probe-84","1","0.3436781374492601","0.14031683805124964","0","","","","","","","",""
"","do_trial","55","456218","0.0-39.0-0.0","757.1549999993294","","","","49","1,0,0","0","city","3","probe-44","1","0.20903453779971887","0.17434465523320325","1","","","","","","","",""
"","do_trial","56","461671","0.0-40.0-0.0","896.1500000441447","","","","49","1,0,0","0","city","4","probe-140","0.9126258629006244","0.21588193628010943","0.06988748601191092","1","","","","","","","",""
"","do_trial","57","467336","0.0-41.0-0.0","1104.035000083968","","","","49","1,1,0","0","city","5","probe-226","0.883051276031068","0.2128175115751077","0.059469832522546076","1","","","","","","","",""
"","do_trial","58","472909","0.0-42.0-0.0","1008.7899999925867","","","","49","1,1,0","0","city","6","probe-129","0.9486419557749837","0.2813116251957023","0.07844000625519207","1","","","","","","","",""
"","do_trial","59","478557","0.0-43.0-0.0","1092.8899999707937","","","","49","1,1,0","0","city","7","probe-237","0.7701589658867292","0.35207453902736374","0.1769185965883135","1","","","","","","","",""
"","do_trial","60","484251","0.0-44.0-0.0","1141.6550000431016","","","","50","1,0,0","0","city","8","probe-105","0.7372811441131354","0.3901318849052132","0.1797998827451697","0","","","","","","","",""
"","do_trial","61","489214","0.0-45.0-0.0","401.71500004362315","","","","49","1,0,0","0","city","9","probe-13","0.6357928109384742","0.393614370729151","0.2106747014910468","1","","","","","","","",""
"","do_trial","62","494452","0.0-46.0-0.0","682.7449999982491","","","","49","0,0,0","0","city","10","probe-158","0.4518658148811253","0.33857306610226146","0.4761032548882742","0","","","","","","","",""
"","do_trial","63","500121","0.0-47.0-0.0","1112.375000026077","","","","49","1,0,1","0","city","11","probe-28","0.18095954219767735","0.37635958078915727","0.581905016973134","1","","","","","","","",""
"","do_trial","64","505985","0.0-48.0-0.0","1307.5299999909475","","","","49","0,1,0","0","city","12","probe-166","0.19857917990075874","0.23874667038121736","0.6647443668176696","0","","","","","","","",""
"","do_trial","65","511543","0.0-49.0-0.0","1002.3849999997765","","","","51","0,1,0","0","city","13","probe-71","0.11699240749791383","0.24384762258861706","0.7258177976248446","0","","","","","","","",""
"","do_trial","66","516495","0.0-50.0-0.0","397.425000090152","","","","49","0,1,1","0","city","14","probe-102","0.20404802105184972","0.36130517373049237","0.8702851898162405","0","","","","","","","",""
"","do_trial","67","522565","0.0-51.0-0.0","1520.4049999592826","","","","49","1,1,1","0","city","15","probe-22","0.16824645314029318","0.46115650061614544","0.818298455402648","1","","","","","","","",""
"","do_trial","68","527637","0.0-52.0-0.0","520.0350000523031","","","","49","0,1,1","0","city","16","probe-145","0.13507553419725996","0.26534699564572933","0.9209862673168142","0","","","","","","","",""
"","do_trial","69","532994","0.0-53.0-0.0","802.5650000199676","","","","49","0,0,1","0","city","17","probe-185","0.09516263537643103","0.331839939576836","0.9057354952692386","0","","","","","","","",""
"","do_trial","70","537917","0.0-54.0-0.0","371.9699999783188","","","","49","0,0,1","0","city","18","probe-26","0.06588006019422835","0.34491290399331226","0.9497451137308134","0","","","","","","","",""
"","do_trial","71","543247","0.0-55.0-0.0","777.0899999886751","","","","49","1,0,1","0","city","19","probe-96","0.07681994436009557","0.2691363393233298","0.9292078241292516","1","","","","","","","",""
"","do_trial","72","548801","0.0-56.0-0.0","998.189999954775","","","","49","0,0,1","0","city","20","probe-229","0.10351501049852528","0.3294638029692753","0.8511030195876874","0","","","","","","","",""
"","do_trial","73","553727","0.0-57.0-0.0","371.3650000281632","","","","50","0,1,1","0","city","21","probe-177","0.0761098668282391","0.3807368955094633","0.7718626468720566","1","","","","","","","",""
"","do_trial","74","559134","0.0-58.0-0.0","852.3249999852851","","","","50","0,0,1","0","city","22","probe-65","0.060031589957268955","0.3997214307005612","0.9129849076924877","0","","","","","","","",""
"","do_trial","75","564097","0.0-59.0-0.0","407.3949999874458","","","","51","0,1,1","0","city","23","probe-171","0.12190417929960941","0.5003090920578847","0.7893100054169255","1","","","","","","","",""
"","do_trial","76","569472","0.0-60.0-0.0","816.2849999498576","","","","51","0,1,1","0","city","24","probe-48","0.16942382590909355","0.40000706679301107","0.7458625829419472","1","","","","","","","",""
"","do_trial","77","574974","0.0-61.0-0.0","945.9800000768155","","","","51","0,0,1","0","city","25","probe-208","0.10882534882444998","0.3335323071857336","0.9377655262582567","1","","","","","","","",""
"","do_trial","78","580994","0.0-62.0-0.0","1459.8299999488518","","","","51","0,0,1","0","city","26","probe-120","0.08217134604593458","0.29264914817441656","0.8277921468282391","1","","","","","","","",""
"","do_trial","79","586648","0.0-63.0-0.0","1097.7799999527633","","","","50","0,0,1","0","city","27","probe-186","0.07254322687850522","0.375619231993951","0.8696434641545231","0","","","","","","","",""
"","do_trial","80","591735","0.0-64.0-0.0","531.5349999582395","","","","49","1,1,0","0","city","28","probe-117","0.11592141037702604","0.44670002723336183","0.8337704633962193","1","","","","","","","",""
"","do_trial","81","597129","0.0-65.0-0.0","832.7650000574067","","","","51","0,1,1","0","city","29","probe-17","0.20721118895270352","0.46295124833001","0.7232620347181847","1","","","","","","","",""
"","do_trial","82","604030","0.0-66.0-0.0","2340.915000066161","","","","51","0,0,1","0","city","30","probe-87","0.1791229640255661","0.4394231544553302","0.7370830971822379","1","","","","","","","",""
"","do_trial","83","609324","0.0-67.0-0.0","738.719999906607","","","","50","0,1,1","0","city","31","probe-130","0.09641032222083547","0.2580879348263836","0.6909136251907918","1","","","","","","","",""
"","do_trial","84","615125","0.0-68.0-0.0","1243.8299999339506","","","","50","0,1,1","0","city","32","probe-23","0.05329254410426138","0.3272684955902671","0.6811023758709145","1","","","","","","","",""
"","do_trial","85","621046","0.0-69.0-0.0","1367.4449999816716","","","","50","1,0,0","0","city","33","probe-50","0.17388685333808238","0.3115524849438824","0.7079812342697888","0","","","","","","","",""
"","do_trial","86","626738","0.0-70.0-0.0","1137.7799999900162","","","","51","0,1,0","0","city","34","probe-70","0.09551800935860627","0.4918616453481113","0.7045983025953004","0","","","","","","","",""
"","do_trial","87","631622","0.0-71.0-0.0","328.719999990426","","","","49","0,1,0","0","city","35","probe-235","0.13760395233039444","0.4797712122715078","0.8666645695709556","0","","","","","","","",""
"","do_trial","88","636562","0.0-72.0-0.0","387.8600000170991","","","","50","0,1,1","0","city","36","probe-72","0.19240908451509475","0.40090054063043334","0.8956612460854845","1","","","","","","","",""
"","do_trial","89","641979","0.0-73.0-0.0","861.559999990277","","","","51","1,0,1","0","city","37","probe-73","0.28692102684046145","0.22850405411251656","0.8721140162833168","1","","","","","","","",""
"","do_trial","90","647489","0.0-74.0-0.0","954.4799999566749","","","","51","0,0,0","0","city","38","probe-20","0.20470483491809924","0.22505785670452796","0.9181789422053963","0","","","","","","","",""
"","do_trial","91","652413","0.0-75.0-0.0","369.15000004228204","","","","50","0,0,0","0","city","39","probe-149","0.16038943738636807","0.4235370228615297","0.846566526576598","0","","","","","","","",""
"","do_bye","92","653921","0.0-76.0-0.0","null","","","","null","","","","","","","","","","","","","","","","",""
"","do_travel","93","659926","0.0-77.0-0.0","null","","","","null","","","","","","","","","","","","","","","","",""
"","do_welcome","94","661437","0.0-77.0-1.0","null","","","","null","","","","","","","","","","","","","","","","",""
"","do_trial","95","667166","0.0-78.0-0.0","1172.1949999919161","","","","49","0,1,1","1","coast","40","probe-202","0.13539362547701386","0.4441014543671655","1","0","","","","","","","",""
"","do_trial","96","672109","0.0-79.0-0.0","385.4249999858439","","","","50","0,1,1","1","coast","41","probe-150","0.14992287636293206","0.4404324951310936","1","1","","","","","","","",""
"","do_trial","97","677470","0.0-80.0-0.0","809.1899999417365","","","","51","0,0,1","1","coast","42","probe-112","0.17237871360727564","0.4359808812722792","1","1","","","","","","","",""
"","do_trial","98","683025","0.0-81.0-0.0","1000.9499998996034","","","","51","0,0,1","1","coast","43","probe-121","0.23307100807560133","0.3654307777155358","1","1","","","","","","","",""
"","do_trial","99","688415","0.0-82.0-0.0","837.9549999954179","","","","51","0,1,1","1","coast","44","probe-97","0.2186803132150221","0.463119733149208","0.8750140192055086","1","","","","","","","",""
"","do_trial","100","693772","0.0-83.0-0.0","797.2150000277907","","","","51","0,1,1","1","coast","45","probe-90","0.11435917325863816","0.6621492093409909","0.8689548894248494","1","","","","","","","",""
"","do_trial","101","699298","0.0-84.0-0.0","971.5800000121817","","","","51","0,0,1","1","coast","46","probe-222","0.05675268635277756","0.7257504385155552","0.8904805499404888","1","","","","","","","",""
"","do_trial","102","704320","0.0-85.0-0.0","460.7500000856817","","","","51","0,1,1","1","coast","47","probe-103","0.10372575260153079","0.6407307909155919","0.7904010225589302","1","","","","","","","",""
"","do_trial","103","709836","0.0-86.0-0.0","959.7049999283627","","","","49","1,1,1","1","coast","48","probe-94","0.18568866650001853","0.6401236711060745","0.710125294545778","1","","","","","","","",""
"","do_trial","104","715616","0.0-87.0-0.0","1225.319999968633","","","","50","1,0,1","1","coast","49","probe-168","0.1914259022749921","0.40992292676663605","0.8105610308083082","0","","","","","","","",""
"","do_trial","105","721224","0.0-88.0-0.0","1052.6850000023842","","","","49","1,1,0","1","coast","50","probe-09","0.35591554284238697","0.6250700102609755","0.587477216937688","1","","","","","","","",""
"","do_trial","106","726608","0.0-89.0-0.0","814.1450000694022","","","","49","0,0,0","1","coast","51","probe-68","0.5758332636431702","0.6532799747787139","0.3482568828015814","0","","","","","","","",""
"","do_trial","107","731537","0.0-90.0-0.0","367.8050000453368","","","","51","0,1,1","1","coast","52","probe-131","0.43482405053644113","0.662547509272662","0.22348295571733937","1","","","","","","","",""
"","do_trial","108","737077","0.0-91.0-0.0","986.390000092797","","","","51","1,1,0","1","coast","53","probe-238","0.44677286773617086","0.5629175727301784","0.18295178550595104","0","","","","","","","",""
"","do_trial","109","741982","0.0-92.0-0.0","338.3900000480935","","","","50","1,1,0","1","coast","54","probe-139","0.5373989669040274","0.6397599816012608","0.20483523755207816","1","","","","","","","",""
"","do_trial","110","747431","0.0-93.0-0.0","892.8750000195578","","","","50","0,0,0","1","coast","55","probe-181","0.47344314302258567","0.6775266025222283","0.1418799485409505","0","","","","","","","",""
"","do_trial","111","752640","0.0-94.0-0.0","653.4650000976399","","","","49","0,1,0","1","coast","56","probe-81","0.5109248094843257","0.6571629251117075","0.0856476447771792","0","","","","","","","",""
"","do_trial","112","757904","0.0-95.0-0.0","707.4599999468774","","","","51","0,1,0","1","coast","57","probe-25","0.5282882796805334","0.6233065999965913","0.19215124654206914","0","","","","","","","",""
"","do_trial","113","763104","0.0-96.0-0.0","643.6049999902025","","","","51","0,1,0","1","coast","58","probe-49","0.49266967359800157","0.7031544768734713","0.10893590520135928","0","","","","","","","",""
"","do_trial","114","768003","0.0-97.0-0.0","334.5499999122694","","","","50","1,1,0","1","coast","59","probe-165","0.4894719406874107","0.8082933512979474","0.16162360553923882","1","","","","","","","",""
"","do_trial","115","773364","0.0-98.0-0.0","797.6600000401959","","","","50","0,1,0","1","coast","60","probe-127","0.4121943545555349","0.7848659746282237","0.1640415292481684","1","","","","","","","",""
"","do_trial","116","778673","0.0-99.0-0.0","748.5049999086186","","","","50","0,0,0","1","coast","61","probe-141","0.21226902544768977","0.6831632914452166","0.16648100044087252","0","","","","","","","",""
"","do_trial","117","783507","0.0-100.0-0.0","278.3449999988079","","","","49","0,1,0","1","coast","62","probe-220","0.278148473489085","0.9107658866297829","0.0771895774840136","0","","","","","","","",""
"","do_trial","118","788368","0.0-101.0-0.0","303.52000007405877","","","","50","0,1,0","1","coast","63","probe-46","0.4248788240788025","0.8306282671318708","0.18370818537684072","1","","","","","","","",""
"","do_trial","119","793387","0.0-102.0-0.0","455.39000001735985","","","","50","0,1,0","1","coast","64","probe-104","0.5940392034262624","0.8927208457518119","0.11760142586120637","1","","","","","","","",""
"","do_trial","120","798249","0.0-103.0-0.0","309.0349999256432","","","","50","0,1,0","1","coast","65","probe-42","0.4738203313260009","0.8248227878318541","0.07859637564334225","1","","","","","","","",""
"","do_trial","121","803455","0.0-104.0-0.0","648.5099999699742","","","","50","0,1,0","1","coast","66","probe-95","0.32322853896235537","0.6283031213931578","0.08862087096285012","1","","","","","","","",""
"","do_trial","122","808470","0.0-105.0-0.0","459.94500000961125","","","","50","0,0,0","1","coast","67","probe-99","0.31649814585121244","0.6007420220312095","0.11901058072363724","0","","","","","","","",""
"","do_trial","123","813430","0.0-106.0-0.0","403.63499999511987","","","","51","1,0,1","1","coast","68","probe-07","0.3860406957224369","0.6727243108262139","0.12581525964216486","1","","","","","","","",""
"","do_trial","124","818459","0.0-107.0-0.0","473.80499995779246","","","","51","1,1,0","1","coast","69","probe-216","0.33800612377519573","0.7516666215714634","0.164947290150852","0","","","","","","","",""
"","do_trial","125","823415","0.0-108.0-0.0","398.4600000549108","","","","51","1,1,0","1","coast","70","probe-148","0.49338502795034705","0.948559292430169","0.10273366793983241","0","","","","","","","",""
"","do_trial","126","828301","0.0-109.0-0.0","329.6800000825897","","","","50","1,1,0","1","coast","71","probe-119","0.3049179679529797","0.8951715614866506","0.17957525863969462","1","","","","","","","",""
"","do_trial","127","833182","0.0-110.0-0.0","319.05000004917383","","","","50","0,1,0","1","coast","72","probe-219","0.17870092610853316","0.7861465250974123","0.10856384685476268","1","","","","","","","",""
"","do_trial","128","838184","0.0-111.0-0.0","445.86000009439886","","","","50","1,0,0","1","coast","73","probe-160","0.26073132804295607","0.7502502805241494","0.17008841764841642","0","","","","","","","",""
"","do_trial","129","843032","0.0-112.0-0.0","292.8400000091642","","","","49","1,1,0","1","coast","74","probe-209","0.34899158555497856","0.828825062689004","0.15476495322270137","1","","","","","","","",""
"","do_trial","130","848013","0.0-113.0-0.0","425.4949999740347","","","","49","1,1,0","1","coast","75","probe-03","0.42617451782043114","0.7904697211951571","0.17399903612159123","1","","","","","","","",""
"","do_trial","131","853270","0.0-114.0-0.0","700.1400000881404","","","","49","0,1,0","1","coast","76","probe-190","0.3551039290963957","0.7350074567516184","0.07977994090736401","0","","","","","","","",""
"","do_trial","132","858127","0.0-115.0-0.0","305.67000003065914","","","","50","1,0,1","1","coast","77","probe-56","0.35345803343561477","0.6833447850069349","0.15966481617282366","0","","","","","","","",""
"","do_trial","133","863554","0.0-116.0-0.0","871.5300000039861","","","","50","0,1,0","1","coast","78","probe-143","0.34741340279350025","0.8286702574574125","0.07569557154137553","1","","","","","","","",""
"","do_trial","134","869037","0.0-117.0-0.0","928.139999974519","","","","50","1,1,0","1","coast","79","probe-101","0.4255236829927567","0.881439788750054","0.07884016507620142","1","","","","","","","",""
"","do_bye","135","870549","0.0-118.0-0.0","null","","","","null","","","","","","","","","","","","","","","","",""
"","do_travel","136","876556","0.0-119.0-0.0","null","","","","null","","","","","","","","","","","","","","","","",""
"","do_welcome","137","878067","0.0-119.0-1.0","null","","","","null","","","","","","","","","","","","","","","","",""
"","do_trial","138","883467","0.0-120.0-0.0","839.1399999381974","","","","51","0,1,0","2","countryside","80","probe-79","0.38658684455842485","1","0.10407544696637336","0","","","","","","","",""
"","do_trial","139","888321","0.0-121.0-0.0","293.94999996293336","","","","50","0,1,0","2","countryside","81","probe-114","0.38747818539708534","1","0.060239701198021564","1","","","","","","","",""
"","do_trial","140","893566","0.0-122.0-0.0","683.5950000677258","","","","50","0,1,0","2","countryside","82","probe-225","0.2922082744164104","1","0.06618643607793438","1","","","","","","","",""
"","do_trial","141","898663","0.0-123.0-0.0","537.2100000968203","","","","50","0,1,0","2","countryside","83","probe-55","0.33815719361608426","1","0.1295285870714586","1","","","","","","","",""
"","do_trial","142","903612","0.0-124.0-0.0","394.42999998573214","","","","50","0,0,0","2","countryside","84","probe-66","0.4590079646021933","0.664362882774248","0.07710681023622473","0","","","","","","","",""
"","do_trial","143","908851","0.0-125.0-0.0","682.9399999696761","","","","49","1,0,0","2","countryside","85","probe-57","0.3751182392569456","0.5960609916670289","0.05901520375634241","1","","","","","","","",""
"","do_trial","144","914148","0.0-126.0-0.0","737.9400000208989","","","","49","0,1,0","2","countryside","86","probe-155","0.37213141410015804","0.6049869795498171","0.06773019920238148","0","","","","","","","",""
"","do_trial","145","919150","0.0-127.0-0.0","449.29500005673617","","","","51","1,1,0","2","countryside","87","probe-41","0.4277849984880702","0.6472481337705448","0.11733601773111367","0","","","","","","","",""
"","do_trial","146","923993","0.0-128.0-0.0","292.66000003553927","","","","50","0,1,0","2","countryside","88","probe-201","0.40954782991133476","0.46375034909449064","0.2030901244156787","1","","","","","","","",""
"","do_trial","147","929114","0.0-129.0-0.0","573.960000067018","","","","50","0,1,0","2","countryside","89","probe-21","0.3870225110393985","0.636871507183437","0.059023300080637484","1","","","","","","","",""
"","do_trial","148","934111","0.0-130.0-0.0","440.80499990377575","","","","50","0,0,0","2","countryside","90","probe-133","0.2604827197923915","0.4878270581624598","0.2541519800115674","0","","","","","","","",""
"","do_trial","149","938997","0.0-131.0-0.0","330.93499997630715","","","","49","0,1,0","2","countryside","91","probe-124","0.14528053815551942","0.5549441200916633","0.3549610803563524","0","","","","","","","",""
"","do_trial","150","944182","0.0-132.0-0.0","630.0500000361353","","","","51","0,1,1","2","countryside","92","probe-47","0.10776223547795777","0.4064740648084429","0.4479635249316873","1","","","","","","","",""
"","do_trial","151","949165","0.0-133.0-0.0","425.58999999891967","","","","51","1,1,0","2","countryside","93","probe-91","0.15657516912506475","0.2877993174714265","0.5126266047560245","0","","","","","","","",""
"","do_trial","152","954118","0.0-134.0-0.0","397.79999991878867","","","","49","0,0,1","2","countryside","94","probe-108","0.17735988782117448","0.3131494429247216","0.6693289711641086","0","","","","","","","",""
"","do_trial","153","959036","0.0-135.0-0.0","364.4649999914691","","","","50","0,1,1","2","countryside","95","probe-240","0.210373229811674","0.49800122503671185","0.6427091840677894","1","","","","","","","",""
"","do_trial","154","964013","0.0-136.0-0.0","424.20500004664063","","","","50","0,0,1","2","countryside","96","probe-142","0.2195917975185257","0.4680762675245234","0.7261126627247703","0","","","","","","","",""
"","do_trial","155","969047","0.0-137.0-0.0","477.1649999311194","","","","51","0,0,1","2","countryside","97","probe-59","0.14820508108650562","0.5031992829719925","0.7346106886090142","1","","","","","","","",""
"","do_trial","156","974034","0.0-138.0-0.0","430.5849999655038","","","","51","1,1,1","2","countryside","98","probe-221","0.13318629213201547","0.44591306381937956","0.7129833321024566","1","","","","","","","",""
"","do_trial","157","979063","0.0-139.0-0.0","473.0699999490753","","","","51","0,0,1","2","countryside","99","probe-176","0.06575804900981458","0.2502190639830093","0.6672923942711249","1","","","","","","","",""
"","do_trial","158","984093","0.0-140.0-0.0","475.12499999720603","","","","50","1,0,1","2","countryside","100","probe-183","0.08142763741686763","0.32866638076824783","0.7340952640505088","0","","","","","","","",""
"","do_trial","159","988990","0.0-141.0-0.0","334.9399999715388","","","","51","0,1,1","2","countryside","101","probe-224","0.17159247607583958","0.2914846891093166","0.6973942881259481","1","","","","","","","",""
"","do_trial","160","994240","0.0-142.0-0.0","688.7799999676645","","","","51","0,0,0","2","countryside","102","probe-217","0.06293640678170419","0.3231063171519243","0.693217909573725","0","","","","","","","",""
"","do_trial","161","999133","0.0-143.0-0.0","333.57000001706183","","","","49","0,0,1","2","countryside","103","probe-206","0.1230290382265821","0.3442157612178219","0.7418579755007453","0","","","","","","","",""
"","do_trial","162","1004050","0.0-144.0-0.0","356.4199999673292","","","","51","0,1,1","2","countryside","104","probe-35","0.1654158742993905","0.36571302504043907","0.803591546112695","1","","","","","","","",""
"","do_trial","163","1009172","0.0-145.0-0.0","566.1599999293685","","","","51","0,1,1","2","countryside","105","probe-169","0.09553079537696416","0.3804731184042348","0.8883159183276784","1","","","","","","","",""
"","do_trial","164","1014464","0.0-146.0-0.0","736.8549999082461","","","","51","0,0,1","2","countryside","106","probe-11","0.11139980861666844","0.43072348778357467","0.7700275259106205","1","","","","","","","",""
"","do_trial","165","1019692","0.0-147.0-0.0","671.7400000197813","","","","51","0,0,1","2","countryside","107","probe-194","0.09739824337445852","0.36740886604013717","0.7465247235850084","1","","","","","","","",""
"","do_trial","166","1025036","0.0-148.0-0.0","788.3600000059232","","","","51","0,0,1","2","countryside","108","probe-77","0.14852414823800839","0.4286836374609699","0.7172377624449447","1","","","","","","","",""
"","do_trial","167","1030226","0.0-149.0-0.0","633.9150000130758","","","","51","0,1,1","2","countryside","109","probe-54","0.15477231024610805","0.3175311079866185","0.6392549754025806","1","","","","","","","",""
"","do_trial","168","1035245","0.0-150.0-0.0","463.1400000071153","","","","51","0,0,0","2","countryside","110","probe-231","0.1864480415892874","0.41896841294712234","0.7289482957939123","0","","","","","","","",""
"","do_trial","169","1040166","0.0-151.0-0.0","361.9200000539422","","","","51","0,0,1","2","countryside","111","probe-167","0.1283040421680709","0.5083210365231442","0.6014944201551375","1","","","","","","","",""
"","do_trial","170","1045362","0.0-152.0-0.0","637.7700000302866","","","","51","0,1,1","2","countryside","112","probe-180","0.07625204322227844","0.3652342345777799","0.7614906196019524","1","","","","","","","",""
"","do_trial","171","1050750","0.0-153.0-0.0","832.2299999417737","","","","51","1,1,1","2","countryside","113","probe-61","0.16284737452481973","0.4216285088843841","0.8759555182896507","1","","","","","","","",""
"","do_trial","172","1056354","0.0-154.0-0.0","1045.2349999686703","","","","51","0,0,0","2","countryside","114","probe-189","0.08592876987188836","0.42893803516232487","0.811835920993492","0","","","","","","","",""
"","do_trial","173","1061418","0.0-155.0-0.0","511.1299999989569","","","","51","0,1,1","2","countryside","115","probe-06","0.15097764159602164","0.4203339753673083","0.9346183009701836","1","","","","","","","",""
"","do_trial","174","1066513","0.0-156.0-0.0","532.6849999837577","","","","51","0,1,1","2","countryside","116","probe-33","0.13221726693752806","0.41390424683000065","0.9044242309060121","1","","","","","","","",""
"","do_trial","175","1071406","0.0-157.0-0.0","335.34500002861023","","","","51","0,0,1","2","countryside","117","probe-36","0.07554307388422495","0.39078188710215034","0.847579286668578","1","","","","","","","",""
"","do_trial","176","1076381","0.0-158.0-0.0","419.9500000104308","","","","51","0,0,1","2","countryside","118","probe-228","0.1065301558653377","0.41617731886035525","0.7837027062935472","1","","","","","","","",""
"","do_trial","177","1081535","0.0-159.0-0.0","597.5849999813363","","","","51","0,0,1","2","countryside","119","probe-233","0.20623582118325","0.471942471713567","0.6581307417559722","1","","","","","","","",""
"","do_bye","178","1083046","0.0-160.0-0.0","null","","","","null","","","","","","","","","","","","","","","","",""
"","do_travel","179","1089049","0.0-161.0-0.0","null","","","","null","","","","","","","","","","","","","","","","",""
"","do_welcome","180","1090561","0.0-161.0-1.0","null","","","","null","","","","","","","","","","","","","","","","",""
"","do_trial","181","1095913","0.0-162.0-0.0","792.8500000853091","","","","50","0,0,1","3","mountain","120","probe-98","0.26814217499714127","0.4567592622475988","1","0","","","","","","","",""
"","do_trial","182","1101107","0.0-163.0-0.0","637.1799999615178","","","","49","0,0,1","3","mountain","121","probe-109","0.1823703899620783","0.42668868358056056","1","0","","","","","","","",""
"","do_trial","183","1106196","0.0-164.0-0.0","532.6699999859557","","","","51","0,0,1","3","mountain","122","probe-10","0.16859027908187074","0.41792777911898094","1","1","","","","","","","",""
"","do_trial","184","1111322","0.0-165.0-0.0","570.8400000585243","","","","51","0,0,1","3","mountain","123","probe-203","0.09782958368954049","0.3374910420880882","1","1","","","","","","","",""
"","do_trial","185","1116464","0.0-166.0-0.0","586.7550000548363","","","","51","0,0,1","3","mountain","124","probe-15","0.1713241618250948","0.3080320838955494","0.9168597819274655","1","","","","","","","",""
"","do_trial","186","1121581","0.0-167.0-0.0","557.9900000011548","","","","51","1,0,1","3","mountain","125","probe-179","0.122311004049417","0.2591581302471388","0.844506345385573","1","","","","","","","",""
"","do_trial","187","1126756","0.0-168.0-0.0","622.0399999292567","","","","51","0,0,1","3","mountain","126","probe-193","0.1996406851775925","0.4888363618427809","0.7913598929171637","1","","","","","","","",""
"","do_trial","188","1131746","0.0-169.0-0.0","431.319999974221","","","","51","0,1,1","3","mountain","127","probe-199","0.23150026505761945","0.5212850822219952","0.7858316080193253","1","","","","","","","",""
"","do_trial","189","1136701","0.0-170.0-0.0","397.6350000593811","","","","51","0,1,1","3","mountain","128","probe-230","0.1401498415204164","0.5605451095727819","0.712165914949167","1","","","","","","","",""
"","do_trial","190","1141742","0.0-171.0-0.0","485.8399999793619","","","","51","0,0,1","3","mountain","129","probe-132","0.13697655924878707","0.42760067125062834","0.7417848669166255","1","","","","","","","",""
"","do_trial","191","1146743","0.0-172.0-0.0","445.1700000790879","","","","51","0,0,1","3","mountain","130","probe-234","0.4070266852924829","0.4221936029580429","0.4423749962358133","1","","","","","","","",""
"","do_trial","192","1151797","0.0-173.0-0.0","498.2050000689924","","","","51","0,0,1","3","mountain","131","probe-88","0.4013090018264771","0.4251877379306327","0.3593933797339674","1","","","","","","","",""
"","do_trial","193","1156980","0.0-174.0-0.0","628.3349998993799","","","","51","1,0,1","3","mountain","132","probe-08","0.5447049854954092","0.4363131205912594","0.18493061184948084","1","","","","","","","",""
"","do_trial","194","1162357","0.0-175.0-0.0","820.619999896735","","","","51","0,0,1","3","mountain","133","probe-76","0.6217596425803003","0.4594078335364681","0.18344072564173927","1","","","","","","","",""
"","do_trial","195","1167218","0.0-176.0-0.0","310.315000009723","","","","51","1,1,0","3","mountain","134","probe-126","0.6507944785522363","0.34943617368320434","0.19625765371780166","0","","","","","","","",""
"","do_trial","196","1172079","0.0-177.0-0.0","303.6949998931959","","","","50","1,0,0","3","mountain","135","probe-146","0.7680756141141911","0.3828827464848802","0.2438530225908337","0","","","","","","","",""
"","do_trial","197","1176987","0.0-178.0-0.0","351.64999996777624","","","","49","0,1,1","3","mountain","136","probe-159","0.8058998560947179","0.3859702605947722","0.15059333980161774","0","","","","","","","",""
"","do_trial","198","1181861","0.0-179.0-0.0","317.3499999102205","","","","51","1,1,0","3","mountain","137","probe-30","0.6932217673329943","0.4519963441250341","0.207557962301747","0","","","","","","","",""
"","do_trial","199","1186802","0.0-180.0-0.0","385.30500000342727","","","","51","1,0,0","3","mountain","138","probe-111","0.6572147406222726","0.5051752669662849","0.13720116801309","0","","","","","","","",""
"","do_trial","200","1191725","0.0-181.0-0.0","368.95999999251217","","","","50","1,0,1","3","mountain","139","probe-192","0.8425500546272122","0.3728592506171431","0.26281740365830525","0","","","","","","","",""
"","do_trial","201","1196584","0.0-182.0-0.0","302.6850000023842","","","","49","1,1,0","3","mountain","140","probe-32","0.7588632846156496","0.5257712582324243","0.18500630368098162","1","","","","","","","",""
"","do_trial","202","1201805","0.0-183.0-0.0","667.284999974072","","","","49","0,1,1","3","mountain","141","probe-212","0.6347043029579722","0.34629802041466706","0.2787571891108994","0","","","","","","","",""
"","do_trial","203","1206688","0.0-184.0-0.0","328.0899999663234","","","","51","0,1,0","3","mountain","142","probe-153","0.6662452674978802","0.5170971112322174","0.14742718681643496","0","","","","","","","",""
"","do_trial","204","1211671","0.0-185.0-0.0","427.350000012666","","","","51","1,1,0","3","mountain","143","probe-178","0.6944897622255948","0.5378412254424222","0.14621120524498726","0","","","","","","","",""
"","do_trial","205","1216682","0.0-186.0-0.0","455.2850000327453","","","","51","1,1,0","3","mountain","144","probe-232","0.8401840502352022","0.5334703168113019","0.051935455450461146","0","","","","","","","",""
"","do_trial","206","1221734","0.0-187.0-0.0","496.2750000413507","","","","50","1,1,0","3","mountain","145","probe-63","0.9331672231177737","0.591588087539713","0.21374827062002955","1","","","","","","","",""
"","do_trial","207","1226866","0.0-188.0-0.0","576.7700000433251","","","","50","1,1,0","3","mountain","146","probe-200","0.8763263992690683","0.43671977279629537","0.22138940971336296","1","","","","","","","",""
"","do_trial","208","1231888","0.0-189.0-0.0","462.5600000144914","","","","50","1,1,0","3","mountain","147","probe-205","0.8263445823012486","0.37884226550267946","0.06408657516201831","1","","","","","","","",""
"","do_trial","209","1237033","0.0-190.0-0.0","588.6450000107288","","","","50","1,0,0","3","mountain","148","probe-170","0.8823698309866328","0.48941114491050136","0.13204884949358758","0","","","","","","","",""
"","do_trial","210","1242267","0.0-191.0-0.0","680.3549999604002","","","","51","1,1,0","3","mountain","149","probe-64","0.9274852301563199","0.5651673165966298","0.07400508714320198","0","","","","","","","",""
"","do_trial","211","1247636","0.0-192.0-0.0","817.2250000061467","","","","49","1,0,0","3","mountain","150","probe-86","0.8517138381155738","0.5502152223075546","0.12168460918446304","1","","","","","","","",""
"","do_trial","212","1252766","0.0-193.0-0.0","563.9900000533089","","","","49","1,1,0","3","mountain","151","probe-92","0.8541551103427294","0.45224477734581997","0.06134636535821802","1","","","","","","","",""
"","do_trial","213","1257910","0.0-194.0-0.0","587.5600000144914","","","","49","1,1,0","3","mountain","152","probe-116","0.6554460885632587","0.41846227802614805","0.0795468422634741","1","","","","","","","",""
"","do_trial","214","1263337","0.0-195.0-0.0","873.8250000169501","","","","49","1,1,0","3","mountain","153","probe-05","0.5994790407162682","0.5189082618311849","0.10623947318436808","1","","","","","","","",""
"","do_trial","215","1268610","0.0-196.0-0.0","715.2950000017881","","","","49","0,0,1","3","mountain","154","probe-16","0.49565642981536995","0.47128218987090154","0.2041223450325384","0","","","","","","","",""
"","do_trial","216","1273483","0.0-197.0-0.0","317.3149999929592","","","","50","1,0,0","3","mountain","155","probe-157","0.6542624594273587","0.5274041021633858","0.12894899884354596","0","","","","","","","",""
"","do_trial","217","1278356","0.0-198.0-0.0","316.9149999739602","","","","51","1,0,0","3","mountain","156","probe-01","0.7964610830740182","0.5228743791991178","0.18811829777600367","0","","","","","","","",""
"","do_trial","218","1283395","0.0-199.0-0.0","479.8299999674782","","","","51","1,0,0","3","mountain","157","probe-39","0.8880245748095564","0.4915372370962647","0.2107324081541562","0","","","","","","","",""
"","do_trial","219","1288261","0.0-200.0-0.0","309.5750000793487","","","","49","1,0,1","3","mountain","158","probe-37","0.8886715976397117","0.4530169401672106","0.2034971222891356","1","","","","","","","",""
"","do_trial","220","1293315","0.0-201.0-0.0","498.62000008579344","","","","49","1,0,0","3","mountain","159","probe-43","0.8355207996228106","0.4256838361158346","0.1757961802884079","1","","","","","","","",""
"","do_bye","221","1294827","0.0-202.0-0.0","null","","","","null","","","","","","","","","","","","","","","","",""
"","do_travel","222","1300835","0.0-203.0-0.0","null","","","","null","","","","","","","","","","","","","","","","",""
"","do_welcome","223","1302346","0.0-203.0-1.0","null","","","","null","","","","","","","","","","","","","","","","",""
"","do_trial","224","1307848","0.0-204.0-0.0","946.5949999867007","","","","51","1,0,0","4","forest","160","probe-173","1","0.34613704059482986","0.134326272233357","0","","","","","","","",""
"","do_trial","225","1312757","0.0-205.0-0.0","356.32499994244426","","","","50","1,1,0","4","forest","161","probe-196","1","0.5475734686950975","0.21505508150671782","1","","","","","","","",""
"","do_trial","226","1318361","0.0-206.0-0.0","309.6450000302866","","","","50","1,1,0","4","forest","162","probe-74","1","0.48105734981933856","0.08368794058802843","1","","","","","","","",""
"","do_trial","227","1325339","0.0-207.0-0.0","null","","","","null","1,1,0","4","forest","163","probe-156","1","0.5305705540596335","0.1837321215339378","","","","","","","","",""
"","do_trial","228","1331295","0.0-208.0-0.0","1396.2000000756234","","","","49","1,1,0","4","forest","164","probe-223","0.8383197332285333","0.5161105620867178","0.09961519472339432","1","","","","","","","",""
"","do_trial","229","1337356","0.0-209.0-0.0","null","","","","null","1,0,0","4","forest","165","probe-67","0.8996889756894061","0.46740532187971007","0.24713717999906082","","","","","","","","",""
"","do_trial","230","1344292","0.0-210.0-0.0","2382.85499997437","","","","49","1,0,0","4","forest","166","probe-154","0.9334965154372631","0.33755504622334914","0.19133381529270282","1","","","","","","","",""
"","do_trial","231","1349700","0.0-211.0-0.0","851.1850000359118","","","","49","1,1,0","4","forest","167","probe-236","0.8345310547913155","0.2927748330587116","0.10021471519482028","1","","","","","","","",""
"","do_trial","232","1354837","0.0-212.0-0.0","582.7800000552088","","","","49","1,0,0","4","forest","168","probe-162","0.7091801020103253","0.3314673943003974","0.11880976509668013","1","","","","","","","",""
"","do_trial","233","1360209","0.0-213.0-0.0","820.9450000431389","","","","49","0,1,0","4","forest","169","probe-27","0.7328469158163865","0.387674050385196","0.06268619680577016","0","","","","","","","",""
"","do_trial","234","1365859","0.0-214.0-0.0","1096.2900000158697","","","","49","0,0,0","4","forest","170","probe-136","0.5543383460697112","0.5243163662058281","0.34243291102026013","0","","","","","","","",""
"","do_trial","235","1370954","0.0-215.0-0.0","534.3500000890344","","","","50","0,1,0","4","forest","171","probe-151","0.3209195309719712","0.4461607386708846","0.6722092304518517","1","","","","","","","",""
"","do_trial","236","1376316","0.0-216.0-0.0","810.094999964349","","","","50","0,0,1","4","forest","172","probe-14","0.3675349648734557","0.44379634911708166","0.7101785666162533","0","","","","","","","",""
"","do_trial","237","1381506","0.0-217.0-0.0","634.8099999595433","","","","49","1,1,0","4","forest","173","probe-128","0.2111496792272726","0.40216028463837994","0.8438563546351039","1","","","","","","","",""
"","do_trial","238","1386509","0.0-218.0-0.0","444.65499999932945","","","","49","1,1,1","4","forest","174","probe-210","0.10009552935157334","0.4682778701118061","0.8162587874365399","1","","","","","","","",""
"","do_trial","239","1391536","0.0-219.0-0.0","472.2850000252947","","","","49","0,0,1","4","forest","175","probe-198","0.26716846877980727","0.46082224488536","0.8176085617129937","0","","","","","","","",""
"","do_trial","240","1396629","0.0-220.0-0.0","537.2500000521541","","","","49","0,0,1","4","forest","176","probe-58","0.21759327437744042","0.4929805757921345","0.8453653305595384","0","","","","","","","",""
"","do_trial","241","1401613","0.0-221.0-0.0","430.4499999852851","","","","50","0,1,1","4","forest","177","probe-184","0.06833827609749957","0.5815691201610245","0.8132771174828716","1","","","","","","","",""
"","do_trial","242","1406506","0.0-222.0-0.0","340.180000057444","","","","50","0,0,0","4","forest","178","probe-188","0.07887734589952705","0.44574285259198976","0.854029877869343","0","","","","","","","",""
"","do_trial","243","1411624","0.0-223.0-0.0","563.5999999940395","","","","49","1,0,0","4","forest","179","probe-204","0.23961900461750904","0.3940407064244249","0.8592825646422364","1","","","","","","","",""
"","do_trial","244","1416649","0.0-224.0-0.0","471.8749999301508","","","","49","0,1,1","4","forest","180","probe-118","0.3223336602023265","0.35890736723184163","0.8323167883196225","0","","","","","","","",""
"","do_trial","245","1421581","0.0-225.0-0.0","376.1149999918416","","","","51","0,1,1","4","forest","181","probe-69","0.3644758636698691","0.3570522085069848","0.8355878085263673","1","","","","","","","",""
"","do_trial","246","1426799","0.0-226.0-0.0","667.3549999250099","","","","51","0,1,1","4","forest","182","probe-137","0.2718708079319434","0.33936686434018193","0.932416103857758","1","","","","","","","",""
"","do_trial","247","1431795","0.0-227.0-0.0","440.9900000318885","","","","51","0,0,1","4","forest","183","probe-24","0.11380266470303317","0.3012971326685477","0.9251563609156892","1","","","","","","","",""
"","do_trial","248","1437037","0.0-228.0-0.0","685.1999999489635","","","","51","0,1,1","4","forest","184","probe-31","0.0664285983953436","0.3773066873189928","0.8289443201761403","1","","","","","","","",""
"","do_trial","249","1443728","0.0-229.0-0.0","2132.630000007339","","","","51","0,1,1","4","forest","185","probe-51","0.09126337620571595","0.3460651573132564","0.7992695756101946","1","","","","","","","",""
"","do_trial","250","1448843","0.0-230.0-0.0","560.2949999738485","","","","51","0,0,1","4","forest","186","probe-211","0.14372350758389765","0.49081080612764316","0.7737489840077433","1","","","","","","","",""
"","do_trial","251","1453967","0.0-231.0-0.0","569.4099999964237","","","","51","0,1,1","4","forest","187","probe-113","0.060294250520067795","0.3521245851426518","0.7229924278106832","1","","","","","","","",""
"","do_trial","252","1458877","0.0-232.0-0.0","354.3749999953434","","","","51","0,0,0","4","forest","188","probe-122","0.06541686361927915","0.3158413102533331","0.9441477404909882","0","","","","","","","",""
"","do_trial","253","1463696","0.0-233.0-0.0","264.47499997448176","","","","49","1,1,1","4","forest","189","probe-45","0.16219016628431007","0.3084582800294622","0.9262912220277864","1","","","","","","","",""
"","do_trial","254","1468551","0.0-234.0-0.0","295.174999977462","","","","49","0,0,1","4","forest","190","probe-218","0.20683647174054964","0.33213769321027753","0.9199440578520034","0","","","","","","","",""
"","do_trial","255","1473465","0.0-235.0-0.0","353.60000003129244","","","","50","0,0,1","4","forest","191","probe-02","0.2483411877243638","0.42701847634676393","0.8646064883007764","0","","","","","","","",""
"","do_trial","256","1478426","0.0-236.0-0.0","405.8799999766052","","","","49","0,0,1","4","forest","192","probe-89","0.2670314801585131","0.3594660726085408","0.8609112984601707","0","","","","","","","",""
"","do_trial","257","1483302","0.0-237.0-0.0","316.8300000252202","","","","51","0,1,1","4","forest","193","probe-191","0.2601175561377844","0.23510844085478333","0.8732988853933382","1","","","","","","","",""
"","do_trial","258","1488154","0.0-238.0-0.0","297.1850000321865","","","","51","0,0,1","4","forest","194","probe-187","0.12908271017065395","0.15800665207507314","0.9356053317341048","1","","","","","","","",""
"","do_trial","259","1493100","0.0-239.0-0.0","395.09999996516854","","","","51","0,1,0","4","forest","195","probe-138","0.054862354880892195","0.2079554493901932","0.8512310455947953","0","","","","","","","",""
"","do_trial","260","1497963","0.0-240.0-0.0","308.67999990005046","","","","50","0,0,1","4","forest","196","probe-106","0.1274607007613277","0.22834548052136058","0.7758724030260841","0","","","","","","","",""
"","do_trial","261","1502923","0.0-241.0-0.0","409.6150000113994","","","","49","0,0,1","4","forest","197","probe-125","0.20939036309044262","0.39934178610001275","0.8971102583970483","0","","","","","","","",""
"","do_trial","262","1507798","0.0-242.0-0.0","320.50999999046326","","","","51","0,0,1","4","forest","198","probe-40","0.24665838642563884","0.306520498819843","0.7192210317607648","1","","","","","","","",""
"","do_trial","263","1512686","0.0-243.0-0.0","326.6349999466911","","","","51","0,1,1","4","forest","199","probe-144","0.07264785177316295","0.387690984172667","0.6795924235200816","1","","","","","","","",""
"","do_bye","264","1514198","0.0-244.0-0.0","null","","","","null","","","","","","","","","","","","","","","","",""
"","do_travel","265","1520206","0.0-245.0-0.0","null","","","","null","","","","","","","","","","","","","","","","",""
"","do_welcome","266","1521712","0.0-245.0-1.0","null","","","","null","","","","","","","","","","","","","","","","",""
"","do_trial","267","1526924","0.0-246.0-0.0","656.044999952428","","","","49","0,1,1","5","highway","200","probe-174","0.20655367616787298","0.39076150304073937","1","0","","","","","","","",""
"","do_trial","268","1531823","0.0-247.0-0.0","341.41999995335937","","","","49","0,1,1","5","highway","201","probe-172","0.2010397228990329","0.3944316614570993","1","0","","","","","","","",""
"","do_trial","269","1536660","0.0-248.0-0.0","281.45500004757196","","","","50","1,0,1","5","highway","202","probe-110","0.19551207054528688","0.5091946337380955","1","0","","","","","","","",""
"","do_trial","270","1541624","0.0-249.0-0.0","408.38000003714114","","","","51","0,0,1","5","highway","203","probe-182","0.14616557321649679","0.39923121971043435","1","1","","","","","","","",""
"","do_trial","271","1546427","0.0-250.0-0.0","244.71499992068857","","","","51","1,1,1","5","highway","204","probe-134","0.20682641099767396","0.4160092544649667","0.9369835940921364","1","","","","","","","",""
"","do_trial","272","1551421","0.0-251.0-0.0","432.50500003341585","","","","51","0,1,1","5","highway","205","probe-60","0.1336060674167582","0.4946380149918055","0.9395760462371263","1","","","","","","","",""
"","do_trial","273","1556411","0.0-252.0-0.0","433.7750000413507","","","","51","0,1,1","5","highway","206","probe-175","0.22924907775453737","0.31611582746418965","0.7959454697551499","1","","","","","","","",""
"","do_trial","274","1561298","0.0-253.0-0.0","335.90500010177493","","","","51","0,0,1","5","highway","207","probe-93","0.12508286399086507","0.3341440161744642","0.7477302104487695","1","","","","","","","",""
"","do_trial","275","1566145","0.0-254.0-0.0","293.42000000178814","","","","51","0,0,0","5","highway","208","probe-100","0.09897698379832354","0.28021806935169963","0.7207273801522722","0","","","","","","","",""
"","do_trial","276","1571293","0.0-255.0-0.0","595.7799999741837","","","","51","0,0,1","5","highway","209","probe-78","0.08017708140829438","0.28148162369502755","0.772427122338012","1","","","","","","","",""
"","do_trial","277","1576161","0.0-256.0-0.0","312.53999995533377","","","","51","0,0,0","5","highway","210","probe-227","0.10385720998047876","0.44288466354162304","0.5790013765849391","0","","","","","","","",""
"","do_trial","278","1580947","0.0-257.0-0.0","235.21499999333173","","","","51","0,0,0","5","highway","211","probe-123","0.1728540708741889","0.652147990802387","0.44507761499465676","0","","","","","","","",""
"","do_trial","279","1585642","0.0-258.0-0.0","138.98000004701316","","","","50","0,0,0","5","highway","212","probe-85","0.2569574955293004","0.8082822680464866","0.4140157293180319","0","","","","","","","",""
"","do_trial","280","1590755","0.0-259.0-0.0","558.3799999440089","","","","49","0,1,0","5","highway","213","probe-161","0.14234542167924522","0.9471320616925002","0.5895762926101519","0","","","","","","","",""
"","do_trial","281","1595626","0.0-260.0-0.0","311.28000002354383","","","","51","0,1,1","5","highway","214","probe-197","0.1845394248247303","0.8713618414719823","0.4990799994537381","1","","","","","","","",""
"","do_trial","282","1600474","0.0-261.0-0.0","291.5999999968335","","","","51","0,0,0","5","highway","215","probe-107","0.08430080979246192","0.7789943511904555","0.6555116416946595","0","","","","","","","",""
"","do_trial","283","1605434","0.0-262.0-0.0","405.5149999912828","","","","51","0,0,1","5","highway","216","probe-52","0.14431467483897625","0.7218794903134582","0.5940796903411092","1","","","","","","","",""
"","do_trial","284","1610329","0.0-263.0-0.0","341.12500003539026","","","","51","0,0,0","5","highway","217","probe-75","0.09607241198538045","0.5733788351774431","0.4335902890703339","0","","","","","","","",""
"","do_trial","285","1615216","0.0-264.0-0.0","332.8249999321997","","","","51","0,1,1","5","highway","218","probe-83","0.08696563588411226","0.5356412086063769","0.4328691871473962","1","","","","","","","",""
"","do_trial","286","1620071","0.0-265.0-0.0","296.305000083521","","","","51","0,1,0","5","highway","219","probe-53","0.08469829023694912","0.6774707131457461","0.3264098921254698","0","","","","","","","",""
"","do_trial","287","1624933","0.0-266.0-0.0","302.2600000258535","","","","51","0,1,0","5","highway","220","probe-04","0.05643809129435808","0.8006004392037471","0.39998875673698336","0","","","","","","","",""
"","do_trial","288","1629863","0.0-267.0-0.0","375.1499999780208","","","","51","0,1,1","5","highway","221","probe-115","0.12794781065127644","0.8239555347887858","0.43124977007635884","1","","","","","","","",""
"","do_trial","289","1634730","0.0-268.0-0.0","306.26500002108514","","","","51","0,1,1","5","highway","222","probe-147","0.24169379254874668","0.8835938014869266","0.5254180902411789","1","","","","","","","",""
"","do_trial","290","1639759","0.0-269.0-0.0","472.2649999894202","","","","51","0,1,1","5","highway","223","probe-29","0.1878561358779608","0.8248868069127635","0.5834389379474613","1","","","","","","","",""
"","do_trial","291","1644690","0.0-270.0-0.0","376.9000000320375","","","","51","0,1,1","5","highway","224","probe-18","0.2549699650752372","0.864292504064711","0.6347898593338626","1","","","","","","","",""
"","do_trial","292","1649827","0.0-271.0-0.0","581.5500000026077","","","","51","0,1,0","5","highway","225","probe-163","0.10153402075117558","0.9437088903927499","0.6001273779548288","0","","","","","","","",""
"","do_trial","293","1654727","0.0-272.0-0.0","344.2799999611452","","","","51","0,1,1","5","highway","226","probe-215","0.17242054633860568","0.9118217819531023","0.38118326853759826","1","","","","","","","",""
"","do_trial","294","1659783","0.0-273.0-0.0","499.78499999269843","","","","51","0,1,1","5","highway","227","probe-207","0.12021427294989578","0.9312997615796936","0.3226204599193552","1","","","","","","","",""
"","do_trial","295","1664833","0.0-274.0-0.0","494.65499992948025","","","","51","0,1,0","5","highway","228","probe-38","0.1770488106538732","0.7995693055626322","0.35410172312882443","0","","","","","","","",""
"","do_trial","296","1669820","0.0-275.0-0.0","432.69500008318573","","","","51","0,1,0","5","highway","229","probe-135","0.2631864094481409","0.9188840641652916","0.3653802152010338","0","","","","","","","",""
"","do_trial","297","1674616","0.0-276.0-0.0","234.7849999787286","","","","51","0,1,0","5","highway","230","probe-164","0.18342810443847377","0.782834684990066","0.3992333416344892","0","","","","","","","",""
"","do_trial","298","1679434","0.0-277.0-0.0","262.1100000105798","","","","51","1,1,1","5","highway","231","probe-62","0.14446849619110616","0.7194434511390283","0.4385286971883804","1","","","","","","","",""
"","do_trial","299","1684372","0.0-278.0-0.0","379.8349999124184","","","","51","1,0,0","5","highway","232","probe-213","0.2468407367501107","0.7362577755275348","0.3508704492024841","0","","","","","","","",""
"","do_trial","300","1689233","0.0-279.0-0.0","304.00500004179776","","","","51","0,1,0","5","highway","233","probe-80","0.08699575968440208","0.7561140428482022","0.3773754222656887","0","","","","","","","",""
"","do_trial","301","1694193","0.0-280.0-0.0","406.0499999905005","","","","51","0,1,0","5","highway","234","probe-34","0.10259621325336041","0.7383593057464227","0.3206224167806083","0","","","","","","","",""
"","do_trial","302","1699036","0.0-281.0-0.0","277.6650000596419","","","","50","0,0,1","5","highway","235","probe-82","0.2706892346312261","0.710239111823176","0.3535644897147123","0","","","","","","","",""
"","do_trial","303","1703837","0.0-282.0-0.0","244.46000007446855","","","","49","0,1,0","5","highway","236","probe-12","0.29047403911422187","0.764672823641416","0.2644885352985633","0","","","","","","","",""
"","do_trial","304","1708817","0.0-283.0-0.0","425.0300000421703","","","","51","0,0,0","5","highway","237","probe-214","0.28027366153493466","0.78839838594524","0.33704581108388737","0","","","","","","","",""
"","do_trial","305","1713730","0.0-284.0-0.0","352.225000038743","","","","51","0,1,1","5","highway","238","probe-19","0.17064076174623194","0.8145454184593234","0.3790423075326072","1","","","","","","","",""
"","do_trial","306","1718647","0.0-285.0-0.0","363.1000000750646","","","","51","0,1,0","5","highway","239","probe-239","0.18494944136364708","0.7403506018528048","0.28964939565270137","0","","","","","","","",""
"","do_bye","307","1720158","0.0-286.0-0.0","null","","","","null","","","","","","","","","","","","","","","","",""
"","html-keyboard-response","308","1725060","0.0-286.0-1.0","4900.140000041574","<div class='center'>You are all done with the first part of the experiment! Thank you for participating. Tomorrow, you will recieve an invite to participate in the next phase of the experiment which you must complete by the end of the day. <p><b>[Press the space bar to end the experiment]</b></p></div>","32","","","","","","","","","","","","5,0,1,2,3,4","194,151,83,43,139,225,128,236,104,12,157,27,165,70,101,21,144,184,25,95,228,176,64,170,47,207,119,185,116,16,86,129,22,49,69,234,71,72,19,148,201,149,111,120,96,89,221,102,93,167,8,67,130,237,138,180,80,24,48,164,126,140,219,45,103,41,94,98,6,215,147,118,218,159,208,2,189,55,142,100,78,113,224,54,65,56,154,40,200,20,132,123,46,90,107,239,141,58,220,175,182,223,216,205,34,168,10,193,76,53,230,166,179,60,188,5,32,35,227,232,97,108,9,202,14,178,192,198,229,131,233,87,7,75,125,145,158,29,110,191,31,211,152,177,231,62,199,204,169,63,85,91,115,4,15,156,0,38,36,42,172,195,73,155,222,66,153,235,161,26,135,150,13,127,209,197,57,183,187,203,117,68,136,23,30,50,210,112,121,44,217,1,88,190,186,137,105,124,39,143,173,171,109,181,133,59,174,92,99,77,226,122,84,160,196,106,51,74,82,52,3,114,146,28,17,162,214,206,37,134,163,61,212,79,33,81,11,213,18,238","13,11,14,4,12,18,16,8,6,3,1,17,2,9,0,15,10,7,5","0.10276938802902504,0.15541317515968586,0.08530569437810562,0.11913885739713491,0.14974106334052326,0.21569911292161045,0.1491932175958095,0.3494656104369811,0.28383925691424494,0.23557654231580202,0.27623755855172194,0.47483652110371444,0.6500883006996767,0.7138627858204939,0.8062649645358841,0.8092322794694735,0.8708784799489484,0.7471757925105985,0.6900628191241921,0.5852608949239191,0.6834843307846769,0.7957705549236852,0.8533867256479623,0.812907531227441,0.8767666861796091,0.7235642924757312,0.8464209266787646,0.6315755474898486,0.6930985995050708,0.7976538218498709,1,0.9404559798159358,0.798191973593866,0.811812533513508,0.7424824787961776,0.7430615883264173,0.8117019922872549,0.7329621288618854,0.6514975562414101,0.7195776423185629,0.6612765784800333,0.4581277202032692,0.2818307959674406,0.2523673462814685,0.24517771882701425,0.16741645869332814,0.16203196101614853,0.09387993913483206,0.2522508605202926,0.13345133773158108,0.10689905618669988,0.1075700262970467,0.0585908828381092,0.155162407400934,0.2796653879556187,0.2339918178803172,0.2270379963378946,0.22279753315897566,0.11617995888460865,0.15464719061726187,0.17859775181214851,0.13953296890711178,0.1114767670080766,0.14953048014967,0.053750939159424006,0.09496306182141623,0.11628339705645034,0.2283459929149631,0.10384693089027319,0.07042617824116354,0.39471571487085677,0.6335682495074134,0.7399383599289522,0.6525773613558898,0.6606886429301666,0.678246716494876,0.7412480511592321,0.8412362185353897,0.942017324767507,0.8626463210429337,0.8792411275954419,0.9014634812903034,0.7862848080761095,0.7743505052337588,0.864476311101696,0.8466777662196954,0.8782508979489447,0.869255955895801,0.8483743206906735,0.7792923083221897,1,0.884880286573323,0.7723434722015473,0.7589979539538492,0.738624082583367,0.8166142363220749,0.7904207332000873,0.818856426062203,0.8699043756726971,0.8182275182541112,0.6093304198214813,0.5714447784033401,0.50978446031664,0.42254529005145175,0.3093330147844381,0.4136881845045026,0.3296303204095258,0.3526873202876788,0.35398295884070075,0.34143931313877796,0.22811042541326557,0.4059088506956869,0.38578157005937175,0.3802690000014506,0.32718914843335634,0.515255747531662,0.4005458207439421,0.48831790394942803,0.40375938707318915,0.48955540430359934,0.6273794119085112,0.6945712842209488,0.5911594087259617,0.5197384783986185,0.4987403435239882,0.48677450785282916,0.5676185265485524,0.32197325767254986,0.27958142675440767,0.30389615670551556,0.23924503145908246,0.33968826418315284,0.29561591873100446,0.22762455498633544,0.3997940313112288,0.2316986034248665,0.35141390894990493,0.3023088227796464,0.3175719398568505,0.29792768709763073,0.2337339603694342,0.19711189577715288,0.19789364401671072,0.32036408089982826,0.34499490727353865,0.26847881396901174,0.3717821394399703,0.31132412363256995,0.3257510877923779,0.4456397647492949,0.40006570610048364,0.36069859982165353,0.3239581384766569,0.371641447835716,0.5234317807373858,0.624493270429444,0.5663010020418019,0.61962966814884,0.7054397314944548,0.6392801339753479,0.8340749657407922,0.825525000443664,0.7940025044693617,0.8194077103005932,0.8530834404036353,0.881880994120681,0.8210923994329757,0.8646787358360445,0.7364478096835281,0.5399877319802558,0.6060135850444617,0.6065319642615928,0.7030003949395152,0.7259935472200008,0.7867653031393458,0.8132114744773151,0.8002991355339419,0.7494791025082657,0.7459550583493655,0.6015181475633263","1,0.9154595136834998,0.7704750145439053,0.7786378772236364,0.7007717322708464,0.7645448022918069,0.8160964443076771,0.9093019060065242,0.7739602779569932,0.80392869784023,0.5417778975179237,0.4953894601007336,0.4672476423707681,0.20987119533874457,0.2801955658571244,0.23044655611115228,0.3557503029342449,0.4787333694550404,0.4611329387086159,0.37314603333951435,0.3119067967963612,0.392796845192523,0.49182375936861095,0.6423806591407144,0.6213649967216471,0.662855548766558,0.5485171676546707,0.47646796544412456,0.3046384638739944,0.29963387093519644,0.41980355787238377,0.41720887520784444,0.5084859365268055,0.3741805049503792,0.420701992690284,0.3638061456640045,0.5288959629489209,0.42793808068890293,0.41753018410138276,0.5142360261882337,0.5319750122588711,0.6392709350229017,0.5892964510652428,0.4699485677819248,0.3294413968698335,0.4484770564128043,0.3534588857112599,0.3422119739156861,0.31426415059454793,0.3358570536323628,0.3458356187510111,0.42934141534943193,0.4719573068729349,0.663302571458448,0.4331582316107413,0.47570086869531103,0.36937281644692394,0.4723387094650726,0.4080313614500177,0.3047681317427455,0.2962745301033945,0.35827668707292043,0.3995701522135788,0.3037740184826778,0.4647140912772585,0.44173182581947085,0.40056001184341905,0.3230154428538974,0.3724602033754156,0.291377724352805,0.2688435366356534,0.14830675780876823,0.09559550028569253,0.14816257498686952,0.09737798636077695,0.09165463297922088,0.21365354176792536,0.22045195143794177,0.26791762678318715,0.3204087380684237,0.45037851092229225,0.503276132586194,0.2793899833183003,0.2001840237744417,0.3501330491174563,0.11937335816643664,0.0520001210668901,0.05860987889406635,0.14037613822280315,0.14754648203359488,0.20804840330865312,0.43273799830083604,0.40526304612606756,0.2761750119842634,0.16272910697038206,0.15228391533952843,0.07673988598866469,0.18359744686118754,0.22982195161576413,0.26536104912086134,0.21851228612170004,0.19887560044682936,0.18750577203352642,0.10246271887453375,0.07122961489218145,0.18150692068960958,0.09895218955498876,0.12924738484573514,0.11499907362720521,0.17808609674153236,0.10207823356920774,0.056072754111316715,0.11019066777380655,0.09364773639060588,0.2004498022077327,0.15210909034328116,0.14546446840308405,0.06574391702536322,0.13946548053177807,0.24092875486014645,0.14999063873890509,0.06967711941656343,0.05719726548391589,0.20900519482146032,0.15998051936518543,0.10437968078081855,0.14365189033905204,0.06212550040655859,0.07451181868164429,0.08102139637525828,0.13032815019765268,0.06767522361813193,0.08821077279659083,0.20678432469499192,0.12025576365870495,0.21667079619467317,0.25240042445639677,0.30397927249903484,0.07511893551062933,0.18876423171530754,0.47961192798126606,0.5300651995884134,0.7117294113233865,0.6088765018966031,0.6925718803477257,0.7820224305507493,0.753839609038287,0.7807780456918946,0.7447646473930415,0.7751922241943477,1,0.9222852690438856,0.9175306015583969,0.7354495354273242,0.7107429163239928,0.8060711275585003,0.8983210019060976,0.9277408259769468,0.8669820749994591,0.880228266942031,0.7720476298954257,0.5481031667295815,0.36043678965934833,0.25955171606553135,0.26889106099155763,0.07674390255386168,0.19071749482479639,0.3083862823127919,0.13149946979551533,0.06401152628673033,0.12452191784498703,0.05032312621688728,0.09269086486840071,0.15246233389095687,0.08201258252164888,0.1274332338917646,0.15728692064284364,0.1289523302216459,0.058657278767963526,0.1112016361628581","0.27391799018976287,0.28168514227088753,0.29778789550242757,0.2728464880072096,0.2977853611008914,0.36429189732807693,0.4262377580828385,0.3040363894021782,0.5570039065201974,0.5088606951104976,0.4364249312411591,0.303395502007913,0.28389279090799086,0.11150158240183324,0.19356746231770047,0.06384699747014469,0.17323413950867703,0.13460277186674596,0.059441779369919505,0.08102646087279976,0.12147011870494803,0.09271590463496972,0.15983229493379256,0.13491663239280882,0.09410233118271023,0.11332060054117638,0.05702519021805367,0.11403774798680491,0.10392575202403588,0.1967997876848393,0.12813582050725916,0.07912416010566622,0.1746196000097399,0.05709408722790855,0.11562288567042014,0.16042122079908985,0.1285721776795166,0.19896456414813762,0.22691848960577374,0.07424090245469474,0.20047474435455997,0.20109572102855997,0.5030281112585899,0.577321138237015,0.6331828313050903,0.723017114205319,0.8326682397171203,0.7734947690571521,0.876884384173311,0.8246216634251292,0.9388835317167922,0.764748938358709,0.8117347025316431,0.7985731619854047,0.750482038158951,0.834523884217781,0.9452737996039434,0.9092314129624708,0.9398268876890202,0.9340414896324967,1,0.818302659764084,0.7916121159033604,0.7331088242962573,0.8477773853824513,0.9257910190460935,0.8581132873999866,0.8189975927519845,0.8650825307461836,0.8535804645861935,0.7384736010751345,0.5894062737555955,0.43564931583679684,0.43707330070399636,0.42742624550427866,0.2920629509285153,0.3438852423691939,0.4321963264951771,0.34701933775032245,0.39112183761703967,0.4785154275634307,0.4296475134751572,0.49568226545043803,0.4212537852936607,0.45056959317325473,0.5372928378545129,0.4046141487355929,0.4153123984021863,0.554422946970789,0.48654397224142215,0.5597773143326081,0.5046989277202235,0.5051522003447967,0.5324895950340071,0.48810705007314276,0.33777611521937545,0.29594405903480037,0.1635912061851351,0.1842532801547003,0.119567241238253,0.39887133200602437,0.7169031039690203,0.7486878429253068,0.7353423370695511,0.6921441393778924,0.8285682999383707,0.9060945597482127,0.9426978907198879,0.7291884112778775,0.7175769430746981,0.6925454348675153,0.6849839028234024,0.708849473065792,0.6385627356852759,0.6991104659849777,0.8783117814116572,0.9325712151783938,0.9301545440246359,0.8982663821141407,0.8907772253999771,1,0.8168756709460253,0.8425525941678206,0.826143557548527,0.8918967945636481,0.9120913427581837,0.7402631555167356,0.6430488050476152,0.8691276029350923,0.891884884205211,0.8008899461450927,0.9368450195801495,0.8613821623213432,0.8781074471667449,0.6831493269570159,0.7736731862744247,0.6791669617436586,0.7211485802484308,0.8106285393109326,0.42757698540286393,0.20425590731864737,0.07612632793340707,0.06856116434304158,0.11811878981104675,0.13240904171887438,0.07335603005073518,0.10822536737676859,0.21999761408141263,0.10606770632435757,0.0804857365938839,0.1371168227777883,0.229860555795958,0.25688122841137717,0.2342233848470244,0.34247834012524064,0.24943439154502728,0.17351761941511865,0.17753333218073705,0.246639739326029,0.22285030920110657,0.2997423559794094,0.31617495566283454,0.23179317314229464,0.2667372282955451,0.25795621344671976,0.3936780627971461,0.5110060586776022,0.5613971807490025,0.5674522962729772,0.40354498213560086,0.5066349506920909,0.5940175089016165,0.5270252891355248,0.499374273699254,0.5671852740027099,0.41170079847610014,0.3367475825155461,0.4203772258867939,0.399117489919126,0.37272821627105585","44,42,124,204,201,48,49,127,129,45,41,205,46,203,40,82,86,208,162,200,47,81,166,168,83,89,202,120,85,161,121,80,126,128,206,122,125,164,167,87,207,209,123,88,169,43,84,160","3,1,1,1,4,1,4,1,4,1,1,4,3,1,3,6,1,1,2,4,1,1,4,3,1,1,3,1,1,1,1,3,1,1,6,1,3,1,1,1,1,1,1,3,5,1,1,1,1,1,1,1,2,3,1,1,4,1,5,2"
