"success","trial_type","trial_index","time_elapsed","internal_node_id","rt","stimulus","key_press","subject_id","response","choice_outcomes","context_n","context_img_id","trial_n","probe_img_id","pR_red","pR_white","pR_black","outcome","contextArray_ind","validImageProbes","invalidImageProbes","pRew_Red","pRew_White","pRew_Black","availableForMemProbe","choice_blocks"
"true","fullscreen","0","7208","0.0-0.0","","","","","","","","","","","","","","","","","","","","","",""
"","pavlovia","1","7210","0.0-1.0","","","","","","","","","","","","","","","","","","","","","",""
"","html-keyboard-response","2","35143","0.0-2.0","27932.399999976158","<div class='center'><p>Welcome! This is the first day of the experiment which will last ~30 minutes. In this experiment, you are the head captain of a pirate ship traveling around the world to different places. You will complete several different tasks during this experiment. Here is an overview of these tasks:</p><br><p>Day 1</p><p>1. Tutorial and quiz</p><p>2. Pick a pirate game in 6 different places</p><br><p>Day 2</p><p>3. Pick a pirate game and memory game</p><p>4. Final questions and payment</p><br><p>If you complete the entire experiment, you will receive $15 and a possible bonus payment.</p><p><b>[Press the space bar to begin the tutorial]</b></p></div>","32","61077d33fa52e0e5aed87ae4","","","","","","","","","","","","","","","","","",""
"","html-keyboard-response","3","49657","0.0-3.0","14520.299999952316","<div class='center'><p>You’ll stop at these 6 islands on your journey. You'll be able to see them in the distance from your ship.</p><p><img src='run_exp/static/images/contexts/all_contexts.png' height='500'></p><p><b>[Press the space bar to continue]</b></p></div>","32","","","","","","","","","","","","","","","","","","",""
"","html-keyboard-response","4","60783","0.0-4.0","11124.799999952316","<div class='center'><p> The pirates on your ship will rob other ships as they leave island</p> These ships have just sold their things to the people living on the island, so they will have lots and lots of gold on them.</p><p><img src='run_exp/static/images/tutorial/ship_center.png' height='400'></p><p><b>[Press the space bar to continue]</b></p></div>","32","","","","","","","","","","","","","","","","","","",""
"","html-keyboard-response","5","84891","0.0-5.0","24107.299999952316","<div class='center'><p>As the head captain, you do not have to rob any ships yourself.</p><p>Another pirate will be doing the robbing for you. </p><p><img src='run_exp/static/images/tutorial/pirates_all_crop.png' height='200'></p><p>If they could rob the ship, then you will get a stack of gold coins like this:</p><p><img src='run_exp/static/images/tutorial/reward.png' height='150'></p><p> If they couldn't rob the ship, then you will get no gold coins and you'll see a big red x like this: </p><p><img src='run_exp/static/images/tutorial/reward_no.png' height='150'></p><p> How much bonus money you make is based on how many gold coins you collect.</p><p><b>[Press the space bar to continue]</b></p><div>","32","","","","","","","","","","","","","","","","","","",""
"","html-keyboard-response","6","100637","0.0-6.0","15745.199999928474","<div class='center'><p>Even the most skilled pirate can not rob EVERY ship.</p><p> Some ships will have very strong defenses against pirate attacks.</p><p> For example, blue beard, here, is very, very good at robbing ships.</p><p> You can press the <b>‘1’</b> button on the keyboard to choose him.</p><p> Try choosing him 10 times to see how often he can rob a ship. </p><p><img src='run_exp/static/images/tutorial/blue.png' height='500'></p></div>","49","","","","","","","","","","","","","","","","","","",""
"","html-keyboard-response","7","102140","0.0-7.0","null","<div class='center'><p><img src='run_exp/static/images/tutorial/blue_win.png' height='500'></p></div>","null","","","","","","","","","","","","","","","","","","",""
"","html-keyboard-response","8","103262","0.0-8.0","1121.7999999523163","<div class='center'><img src='run_exp/static/images/tutorial/blue.png' height='500'></p></div>","49","","","","","","","","","","","","","","","","","","",""
"","html-keyboard-response","9","104766","0.0-9.0","null","<div class='center'><p><img src='run_exp/static/images/tutorial/blue_win.png' height='500'></p></div>","null","","","","","","","","","","","","","","","","","","",""
"","html-keyboard-response","10","105063","0.0-10.0","296.2000000476837","<div class='center'><img src='run_exp/static/images/tutorial/blue.png' height='500'></p></div>","49","","","","","","","","","","","","","","","","","","",""
"","html-keyboard-response","11","106578","0.0-11.0","null","<div class='center'><p><img src='run_exp/static/images/tutorial/blue_win.png' height='500'></p></div>","null","","","","","","","","","","","","","","","","","","",""
"","html-keyboard-response","12","106834","0.0-12.0","255.40000009536743","<div class='center'><img src='run_exp/static/images/tutorial/blue.png' height='500'></p></div>","49","","","","","","","","","","","","","","","","","","",""
"","html-keyboard-response","13","108337","0.0-13.0","null","<div class='center'><p><img src='run_exp/static/images/tutorial/blue_no_win.png' height='500'></p></div>","null","","","","","","","","","","","","","","","","","","",""
"","html-keyboard-response","14","108553","0.0-14.0","215.09999990463257","<div class='center'><img src='run_exp/static/images/tutorial/blue.png' height='500'></p></div>","49","","","","","","","","","","","","","","","","","","",""
"","html-keyboard-response","15","110076","0.0-15.0","null","<div class='center'><p><img src='run_exp/static/images/tutorial/blue_win.png' height='500'></p></div>","null","","","","","","","","","","","","","","","","","","",""
"","html-keyboard-response","16","110324","0.0-16.0","247.5","<div class='center'><img src='run_exp/static/images/tutorial/blue.png' height='500'></p></div>","49","","","","","","","","","","","","","","","","","","",""
"","html-keyboard-response","17","111839","0.0-17.0","null","<div class='center'><p><img src='run_exp/static/images/tutorial/blue_win.png' height='500'></p></div>","null","","","","","","","","","","","","","","","","","","",""
"","html-keyboard-response","18","112082","0.0-18.0","242.69999992847443","<div class='center'><img src='run_exp/static/images/tutorial/blue.png' height='500'></p></div>","49","","","","","","","","","","","","","","","","","","",""
"","html-keyboard-response","19","113587","0.0-19.0","null","<div class='center'><p><img src='run_exp/static/images/tutorial/blue_win.png' height='500'></p></div>","null","","","","","","","","","","","","","","","","","","",""
"","html-keyboard-response","20","113928","0.0-20.0","340.1999999284744","<div class='center'><img src='run_exp/static/images/tutorial/blue.png' height='500'></p></div>","49","","","","","","","","","","","","","","","","","","",""
"","html-keyboard-response","21","115446","0.0-21.0","null","<div class='center'><p><img src='run_exp/static/images/tutorial/blue_no_win.png' height='500'></p></div>","null","","","","","","","","","","","","","","","","","","",""
"","html-keyboard-response","22","115684","0.0-22.0","237.79999995231628","<div class='center'><img src='run_exp/static/images/tutorial/blue.png' height='500'></p></div>","49","","","","","","","","","","","","","","","","","","",""
"","html-keyboard-response","23","117189","0.0-23.0","null","<div class='center'><p><img src='run_exp/static/images/tutorial/blue_win.png' height='500'></p></div>","null","","","","","","","","","","","","","","","","","","",""
"","html-keyboard-response","24","117474","0.0-24.0","284.2000000476837","<div class='center'><img src='run_exp/static/images/tutorial/blue.png' height='500'></p></div>","49","","","","","","","","","","","","","","","","","","",""
"","html-keyboard-response","25","118982","0.0-25.0","null","<div class='center'><p><img src='run_exp/static/images/tutorial/blue_win.png' height='500'></p></div>","null","","","","","","","","","","","","","","","","","","",""
"","html-keyboard-response","26","121660","0.0-26.0","2678","<div class='center'><p> See, he could rob the ships most of the time but not every time. </p><p><b>[Press the space bar to continue]</b></p></div>","32","","","","","","","","","","","","","","","","","","",""
"","html-keyboard-response","27","131480","0.0-27.0","9818.899999976158","<div class='center'><p>You will get to choose which of three pirates you want to rob the next ship. <p>Press the <b>‘1’</b> button on your keyboard to pick the pirate with the red beard.</p><p> Press <b>‘2’</b> to pick the pirate with the white beard.</p><p> Press <b>‘3’</b> to pick the pirate with the black beard.</p><p>Try picking a pirate now!</p><p><img src='run_exp/static/images/tutorial/all_pirates.png' height='500'></p></div>","49","","","","","","","","","","","","","","","","","","",""
"","html-keyboard-response","28","132912","0.0-28.0-0.0","1430.7999999523163","<div class='center'><p>This pirate could rob the ship!</p><p><img src='run_exp/static/images/tutorial/red_win.png' height='500'></p><p><b>[Press the space bar to continue]</b></p></div>","32","","","","","","","","","","","","","","","","","","",""
"","html-keyboard-response","29","133990","0.0-28.0-1.0","1077.5","<div class='center'><p>Now try choosing another</p><p><img src='run_exp/static/images/tutorial/all_pirates.png' height='500'></p></div>","50","","","","","","","","","","","","","","","","","","",""
"","html-keyboard-response","30","135128","0.0-29.0-0.0","1137.1000000238419","<div class='center'><p>This pirate could not rob the ship!</p><p><img src='run_exp/static/images/tutorial/white_no_win.png' height='500'></p><p><b>[Press the space bar to continue]</b></p></div>","32","","","","","","","","","","","","","","","","","","",""
"","html-keyboard-response","31","150634","0.0-30.0-0.0","15505.100000023842","<div class='center'><p>If you don’t make your choice fast enough, you’ll have to wait a few seconds before you can make another one. </p><p>You can’t collect more gold coins. You just have to sit and wait.</p><p><img src='run_exp/static/images/miscellaneous/hurry_up.png' height='500'></p><p><b>[Press the space bar to continue]</b></p></div>","32","","","","","","","","","","","","","","","","","","",""
"","html-keyboard-response","32","185919","0.0-30.0-1.0","35291.89999997616","<div class='center'><p>Once you choose a pirate, you’ll be shown the ship they are robbing.</p><p>You will never rob the same ship twice.</p><p>Ships can be told apart from one another by the image on them.</p><p> Every time you see a ship, you will have to remember on which island you saw it.</p><p> Remembering correctly will help you win more bonus money!</p><p>A helpful strategy is to try to come up with a story of the object on the ship interacting with the current island scene.</p><p> For example, here, you could imagine a mug full of water in the desert. </p><p>For a ship with an apple on it on the forest island, you could imagine an apple falling from a tree in the forest.</p><p><img src='run_exp/static/images/tutorial/example_probe.png' height='500'></p><p><b>[Press the space bar to continue]</b></p></div>","32","","","","","","","","","","","","","","","","","","",""
"","html-keyboard-response","33","209243","0.0-30.0-2.0","23323.599999904633","<div class='center'><p>How good a pirate is at robbing ships will depend on the current island.</p><p> A pirate may have visited the island many times before and gained a lot of practice robbing ships there.</p><p>So, they're more likely to bring back gold coins than a pirate who has never visited this island before. </p><p><b>[Press the space bar to continue]</b></p></div>","32","","","","","","","","","","","","","","","","","","",""
"","html-keyboard-response","34","230064","0.0-30.0-3.0","20819.5","<div class='center'><p>How good a pirate is at robbing ships can also change over the time spent on the island<p> Ships may hear from islanders about the pirates coming and will improve their protection against the attack. This may make it harder to rob them.</p><p> Ships may also become lazy and lower their protection. This may make it easier to rob them.</p><br><p>Things are always changing on the high seas! So, try your best to pay attention!</p><p><img src='run_exp/static/images/tutorial/contingency.png' height='500'></p><p><b>[Press the space bar to continue]</b></p></div>","32","","","","","","","","","","","","","","","","","","",""
"","html-keyboard-response","35","283512","0.0-30.0-4.0","53447.5","<div class='center'><p>Let's go over the instructions quickly again.You have two important things to do: </p><b><p> 1. Pick the pirate who is the best at robbing ships on the current island.</p></b><b><p> 2. Remember on which island a ship was robbed.</p> </b><p>How much bonus money you make is based on both. </p><br><p>Let’s try a practice game. The game will start by showing you the pirates. First pick a pirate using the <b> 1, 2, 3 </b> buttons on your keyboard. When you are shown a ship, try to remember the island you’re on by making up a story.</p><p> You only have 3 seconds to pick a pirate, so please make a choice quickly! If you are too slow, you’ll have to wait a bit during the time out.</p><p> Don’t feel rushed, but please do try to make a choice every time.</p><p>This is just a practice game, so you’re not playing for money. </p><p> Good luck, remember press <b>'1'</b> to choose red beard, <b>'2'</b> to choose white beard, and <b>'3'</b> to choose black beard</p><p><b>[Press the space bar to begin the practice game]</b></p></div>","32","","","","","","","","","","","","","","","","","","",""
"","do_welcome","36","285024","0.0-30.0-5.0","null","","","","null","","","","","","","","","","","","","","","","",""
"","do_trial","37","291280","0.0-30.0-6.0","1745.5","","","","50","1,0,0","","","","","","","","","","","","","","","",""
"","html-keyboard-response","38","292290","0.0-31.0-0.0","null","<p></p>","null","","","","","","","","","","","","","","","","","","",""
"","do_trial","39","298287","0.0-31.0-1.0","1489.6999999284744","","","","49","1,1,0","","","","","","","","","","","","","","","",""
"","html-keyboard-response","40","299297","0.0-32.0-0.0","null","<p></p>","null","","","","","","","","","","","","","","","","","","",""
"","do_trial","41","304671","0.0-32.0-1.0","858.1000000238419","","","","51","1,0,1","","","","","","","","","","","","","","","",""
"","html-keyboard-response","42","305677","0.0-33.0-0.0","null","<p></p>","null","","","","","","","","","","","","","","","","","","",""
"","do_trial","43","310502","0.0-33.0-1.0","315.59999990463257","","","","49","0,1,0","","","","","","","","","","","","","","","",""
"","html-keyboard-response","44","311513","0.0-34.0-0.0","null","<p></p>","null","","","","","","","","","","","","","","","","","","",""
"","do_trial","45","316821","0.0-34.0-1.0","796.8999999761581","","","","51","1,0,0","","","","","","","","","","","","","","","",""
"","do_bye","46","318339","0.0-35.0-0.0","null","","","","null","","","","","","","","","","","","","","","","",""
"","do_travel","47","324347","0.0-35.0-1.0","null","","","","null","","","","","","","","","","","","","","","","",""
"","do_welcome","48","325850","0.0-35.0-2.0","null","","","","null","","","","","","","","","","","","","","","","",""
"","do_trial","49","331413","0.0-35.0-3.0","1059.3999999761581","","","","49","1,0,0","","","","","","","","","","","","","","","",""
"","html-keyboard-response","50","332421","0.0-36.0-0.0","null","<p></p>","null","","","","","","","","","","","","","","","","","","",""
"","do_trial","51","337746","0.0-36.0-1.0","812.2000000476837","","","","50","1,0,1","","","","","","","","","","","","","","","",""
"","html-keyboard-response","52","338751","0.0-37.0-0.0","null","<p></p>","null","","","","","","","","","","","","","","","","","","",""
"","do_trial","53","344295","0.0-37.0-1.0","1032.7000000476837","","","","51","1,1,0","","","","","","","","","","","","","","","",""
"","html-keyboard-response","54","345304","0.0-38.0-0.0","null","<p></p>","null","","","","","","","","","","","","","","","","","","",""
"","do_trial","55","350068","0.0-38.0-1.0","259.39999997615814","","","","49","0,0,1","","","","","","","","","","","","","","","",""
"","html-keyboard-response","56","351077","0.0-39.0-0.0","null","<p></p>","null","","","","","","","","","","","","","","","","","","",""
"","do_trial","57","356210","0.0-39.0-1.0","617.2000000476837","","","","49","1,0,1","","","","","","","","","","","","","","","",""
"","html-keyboard-response","58","358537","0.0-40.0-0.0","2326.2999999523163","<div class='center'><p><img src='run_exp/static/images/tutorial/prac_best_pirate.png'  height='500'></p></div>","49","","","","","","","","","","","","","","","","","","",""
"","html-keyboard-response","59","360370","0.0-41.0-0.0","1831.8999999761581","<div class='center'><p>That's correct! Red beard was the best.</p><p><b>[Press the space bar to continue]</b></p></div>","32","","","","","","","","","","","","","","","","","","",""
"","html-keyboard-response","60","363560","0.0-41.0-1.0","3189.2999999523163","<div class='center'><p><img src='run_exp/static/images/tutorial/prac_source.png'  height='500'></p></div>","50","","","","","","","","","","","","","","","","","","",""
"","html-keyboard-response","61","364873","0.0-42.0-0.0","1312.6000000238419","<div class='center'><p>That's correct! You saw this ship on the cavern island.</p><p><b>[Press the space bar to continue]</b></p></div>","32","","","","","","","","","","","","","","","","","","",""
"","html-keyboard-response","62","372886","0.0-42.0-1.0","8011.700000047684","<div class='center'><p>Good job on the practice game! Now, you will be asked you some true or false questions to make sure you really understand the rules of the game.</p><p> Press <b>'1'</b> on the keyboard for true and press <b>'2'</b> for false.</p><p><b>[Press the space bar to begin the quiz]</b></p></div>","32","","","","","","","","","","","","","","","","","","",""
"","html-keyboard-response","63","378426","0.0-42.0-2.0","5539.899999976158","<div class='center'><p>You win bonus money by making choices as fast as possible.</p><p>Press 1 for true and press  2 for false.</p></div>","50","","","","","","","","","","","","","","","","","","",""
"","html-keyboard-response","64","379410","0.0-43.0-0.0","983.1000000238419","<div class='center'><p>That's correct!</p> <p><b>[press the space bar to continue with the quiz]</b></p></div>","32","","","","","","","","","","","","","","","","","","",""
"","html-keyboard-response","65","382408","0.0-43.0-1.0","2997.7999999523163","<div class='center'><p>You press the <b>‘3’</b> button on the keyboard to choose the red bearded pirate. </p><p>Press 1 for true and press  2 for false.</p></div>","50","","","","","","","","","","","","","","","","","","",""
"","html-keyboard-response","66","383038","0.0-44.0-0.0","629.1999999284744","<div class='center'><p>That's correct!</p> <p><b>[press the space bar to continue with the quiz]</b></p></div>","32","","","","","","","","","","","","","","","","","","",""
"","html-keyboard-response","67","388878","0.0-44.0-1.0","5839.399999976158","<div class='center'><p>The pirate who is the best at robbing ships on the first island will be the best on every other island.</p><p>Press 1 for true and press  2 for false.</p></div>","50","","","","","","","","","","","","","","","","","","",""
"","html-keyboard-response","68","389808","0.0-45.0-0.0","929.5","<div class='center'><p>That's correct!</p> <p><b>[press the space bar to continue with the quiz]</b></p></div>","32","","","","","","","","","","","","","","","","","","",""
"","html-keyboard-response","69","392506","0.0-45.0-1.0","2697.5","<div class='center'><p>You should remember the island where a pirate robbed a ship.</p><p>Press 1 for true and press  2 for false.</p></div>","49","","","","","","","","","","","","","","","","","","",""
"","html-keyboard-response","70","393164","0.0-46.0-0.0","649.1000000238419","<div class='center'><p>That's correct!</p> <p><b>[press the space bar to continue with the quiz]</b></p></div>","32","","","","","","","","","","","","","","","","","","",""
"","html-keyboard-response","71","395188","0.0-47.0-0.0","2023.2000000476837","<div class='center'><p>Good job! You’re now ready to move on to the real game!</p> <p><br>[press the space bar to begin!]</br></p></div>","32","","","","","","","","","","","","","","","","","","",""
"","do_welcome","72","396703","0.0-48.0-0.0","null","","","","null","","","","","","","","","","","","","","","","",""
"","do_trial","73","402011","0.0-49.0-0.0","783.5999999046326","","","","49","1,0,0","0","forest","0","probe-40","0.6","0.3","0.1","1","","","","","","","",""
"","html-keyboard-response","74","403018","0.0-49.0-1.0","null","<p></p>","null","","","","","","","","","","","","","","","","","","",""
"","do_trial","75","408035","0.0-50.0-0.0","485.10000002384186","","","","50","0,0,0","0","forest","1","probe-27","0.5308177227189703","0.30873809834849586","0.1369650793220169","0","","","","","","","",""
"","html-keyboard-response","76","409044","0.0-50.0-1.0","null","<p></p>","null","","","","","","","","","","","","","","","","","","",""
"","do_trial","77","414419","0.0-51.0-0.0","840.3999999761581","","","","51","0,0,0","0","forest","2","probe-04","0.6204507460265231","0.3568163846414379","0.16143808639060026","0","","","","","","","",""
"","html-keyboard-response","78","415426","0.0-51.0-1.0","null","<p></p>","null","","","","","","","","","","","","","","","","","","",""
"","do_trial","79","420256","0.0-52.0-0.0","306.7000000476837","","","","49","1,0,0","0","forest","3","probe-135","0.6572701834777773","0.35242817228593465","0.08903585445783392","1","","","","","","","",""
"","html-keyboard-response","80","421268","0.0-52.0-1.0","null","<p></p>","null","","","","","","","","","","","","","","","","","","",""
"","do_trial","81","426311","0.0-53.0-0.0","512","","","","49","0,1,0","0","forest","4","probe-36","0.5766016374881228","0.27555853788628787","0.08210670790285919","0","","","","","","","",""
"","html-keyboard-response","82","427317","0.0-53.0-1.0","null","<p></p>","null","","","","","","","","","","","","","","","","","","",""
"","do_trial","83","433350","0.0-54.0-0.0","null","","","","null","1,1,0","0","forest","5","probe-61","0.36338318645064077","0.4075254104311849","0.05872406316198868","","","","","","","","",""
"","html-keyboard-response","84","434357","0.0-54.0-1.0","null","<p></p>","null","","","","","","","","","","","","","","","","","","",""
"","do_trial","85","439319","0.0-55.0-0.0","430.1999999284744","","","","49","0,1,0","0","forest","6","probe-101","0.4594371877951119","0.39614471752535724","0.0906249336906334","0","","","","","","","",""
"","html-keyboard-response","86","440327","0.0-55.0-1.0","null","<p></p>","null","","","","","","","","","","","","","","","","","","",""
"","do_trial","87","445922","0.0-56.0-0.0","1070.1000000238419","","","","50","1,1,0","0","forest","7","probe-214","0.5825123861418964","0.23813200629032039","0.10478800555681644","1","","","","","","","",""
"","html-keyboard-response","88","446939","0.0-56.0-1.0","null","<p></p>","null","","","","","","","","","","","","","","","","","","",""
"","do_trial","89","452206","0.0-57.0-0.0","741.7999999523163","","","","51","0,1,1","0","forest","8","probe-147","0.649969106304097","0.2952505561320404","0.2959073750864584","1","","","","","","","",""
"","html-keyboard-response","90","453212","0.0-57.0-1.0","null","<p></p>","null","","","","","","","","","","","","","","","","","","",""
"","do_trial","91","458046","0.0-58.0-0.0","301","","","","49","1,0,1","0","forest","9","probe-224","0.581835330418455","0.2141213118552549","0.24513249295521367","1","","","","","","","",""
"","html-keyboard-response","92","459059","0.0-58.0-1.0","null","<p></p>","null","","","","","","","","","","","","","","","","","","",""
"","do_trial","93","464102","0.0-59.0-0.0","518.6000000238419","","","","49","1,0,0","0","forest","10","probe-84","0.58723451876308","0.23074582235936267","0.18902729874508872","1","","","","","","","",""
"","html-keyboard-response","94","465104","0.0-59.0-1.0","null","<p></p>","null","","","","","","","","","","","","","","","","","","",""
"","do_trial","95","470214","0.0-60.0-0.0","578.2000000476837","","","","49","1,0,0","0","forest","11","probe-33","0.6469047149003118","0.2696066287086464","0.18121632247765174","1","","","","","","","",""
"","html-keyboard-response","96","471221","0.0-60.0-1.0","null","<p></p>","null","","","","","","","","","","","","","","","","","","",""
"","do_trial","97","476623","0.0-61.0-0.0","874.8999999761581","","","","49","1,0,0","0","forest","12","probe-97","0.6530347770934941","0.3570954208439433","0.12659497222907348","1","","","","","","","",""
"","html-keyboard-response","98","477639","0.0-61.0-1.0","null","<p></p>","null","","","","","","","","","","","","","","","","","","",""
"","do_trial","99","482823","0.0-62.0-0.0","650.5","","","","49","1,0,0","0","forest","13","probe-19","0.7551188693775019","0.26278504358490956","0.14203366367064996","1","","","","","","","",""
"","html-keyboard-response","100","483833","0.0-62.0-1.0","null","<p></p>","null","","","","","","","","","","","","","","","","","","",""
"","do_trial","101","489221","0.0-63.0-0.0","864.7000000476837","","","","49","0,1,0","0","forest","14","probe-129","0.8148355403747038","0.2350455241222188","0.08151905501217789","0","","","","","","","",""
"","html-keyboard-response","102","490237","0.0-63.0-1.0","null","<p></p>","null","","","","","","","","","","","","","","","","","","",""
"","do_trial","103","496591","0.0-64.0-0.0","1828.6000000238419","","","","49","1,0,0","0","forest","15","probe-07","0.6159288041193941","0.3977351900790118","0.15640353168444496","1","","","","","","","",""
"","html-keyboard-response","104","497601","0.0-64.0-1.0","null","<p></p>","null","","","","","","","","","","","","","","","","","","",""
"","do_trial","105","502976","0.0-65.0-0.0","856.2000000476837","","","","49","1,1,0","0","forest","16","probe-222","0.679781537624859","0.27765660313712226","0.15432010587958309","1","","","","","","","",""
"","html-keyboard-response","106","503980","0.0-65.0-1.0","null","<p></p>","null","","","","","","","","","","","","","","","","","","",""
"","do_trial","107","508970","0.0-66.0-0.0","463.5","","","","49","1,1,0","0","forest","17","probe-130","0.6095460511986829","0.4060695505310201","0.20016730729232546","1","","","","","","","",""
"","html-keyboard-response","108","509976","0.0-66.0-1.0","null","<p></p>","null","","","","","","","","","","","","","","","","","","",""
"","do_trial","109","514910","0.0-67.0-0.0","400.59999990463257","","","","49","1,1,0","0","forest","18","probe-35","0.5443679667548679","0.49257400145465896","0.284927989889501","1","","","","","","","",""
"","html-keyboard-response","110","515925","0.0-67.0-1.0","null","<p></p>","null","","","","","","","","","","","","","","","","","","",""
"","do_trial","111","521196","0.0-68.0-0.0","737.1000000238419","","","","49","1,1,0","0","forest","19","probe-103","0.608622694830994","0.2652165173968165","0.392418858500196","1","","","","","","","",""
"","html-keyboard-response","112","522212","0.0-68.0-1.0","null","<p></p>","null","","","","","","","","","","","","","","","","","","",""
"","do_trial","113","527123","0.0-69.0-0.0","387.6999999284744","","","","49","1,0,1","0","forest","20","probe-85","0.6760294603334595","0.24157528520334473","0.33276544776339945","1","","","","","","","",""
"","html-keyboard-response","114","528131","0.0-69.0-1.0","null","<p></p>","null","","","","","","","","","","","","","","","","","","",""
"","do_trial","115","533138","0.0-70.0-0.0","484.7999999523163","","","","49","0,0,0","0","forest","21","probe-109","0.6897049848591467","0.05091970153976799","0.1590171291876679","0","","","","","","","",""
"","html-keyboard-response","116","534140","0.0-70.0-1.0","null","<p></p>","null","","","","","","","","","","","","","","","","","","",""
"","do_trial","117","539286","0.0-71.0-0.0","621.5999999046326","","","","49","0,0,0","0","forest","22","probe-121","0.6496376578304246","0.12136786322271846","0.08949983075828381","0","","","","","","","",""
"","html-keyboard-response","118","540291","0.0-71.0-1.0","null","<p></p>","null","","","","","","","","","","","","","","","","","","",""
"","do_trial","119","545615","0.0-72.0-0.0","792.3999999761581","","","","49","1,1,0","0","forest","23","probe-139","0.6214308438683614","0.22693936821497915","0.1505516438664602","1","","","","","","","",""
"","html-keyboard-response","120","546630","0.0-72.0-1.0","null","<p></p>","null","","","","","","","","","","","","","","","","","","",""
"","do_trial","121","551882","0.0-73.0-0.0","730.7999999523163","","","","49","0,1,1","0","forest","24","probe-06","0.7005208485490191","0.1343875840255724","0.10153051556233259","0","","","","","","","",""
"","html-keyboard-response","122","552886","0.0-73.0-1.0","null","<p></p>","null","","","","","","","","","","","","","","","","","","",""
"","do_trial","123","559014","0.0-74.0-0.0","1593.7999999523163","","","","49","1,0,0","0","forest","25","probe-166","0.6341958074660529","0.25774756304417457","0.20981001589099543","1","","","","","","","",""
"","html-keyboard-response","124","560020","0.0-74.0-1.0","null","<p></p>","null","","","","","","","","","","","","","","","","","","",""
"","do_trial","125","565723","0.0-75.0-0.0","1175.7000000476837","","","","49","0,1,0","0","forest","26","probe-95","0.5498480863768118","0.39060490768894685","0.12597461343150995","0","","","","","","","",""
"","html-keyboard-response","126","566739","0.0-75.0-1.0","null","<p></p>","null","","","","","","","","","","","","","","","","","","",""
"","do_trial","127","572241","0.0-76.0-0.0","972.5","","","","49","1,0,0","0","forest","27","probe-229","0.5882425002587885","0.40804984917289516","0.15127188881172912","1","","","","","","","",""
"","html-keyboard-response","128","573249","0.0-76.0-1.0","null","<p></p>","null","","","","","","","","","","","","","","","","","","",""
"","do_trial","129","578184","0.0-77.0-0.0","404.7999999523163","","","","49","1,1,0","0","forest","28","probe-213","0.651595689979124","0.3503881026763542","0.10005520382515537","1","","","","","","","",""
"","html-keyboard-response","130","579200","0.0-77.0-1.0","null","<p></p>","null","","","","","","","","","","","","","","","","","","",""
"","do_trial","131","584070","0.0-78.0-0.0","345.7000000476837","","","","49","0,0,0","0","forest","29","probe-151","0.5529071053648423","0.33688827745955885","0.14154530255758382","0","","","","","","","",""
"","html-keyboard-response","132","585086","0.0-78.0-1.0","null","<p></p>","null","","","","","","","","","","","","","","","","","","",""
"","do_bye","133","586602","0.0-79.0-0.0","null","","","","null","","","","","","","","","","","","","","","","",""
"","do_travel","134","592609","0.0-80.0-0.0","null","","","","null","","","","","","","","","","","","","","","","",""
"","do_welcome","135","594118","0.0-80.0-1.0","null","","","","null","","","","","","","","","","","","","","","","",""
"","do_trial","136","599749","0.0-81.0-0.0","1098.2999999523163","","","","49","1,1,0","1","highway","30","probe-108","1","0.3008560801821938","0.21875977423910276","1","","","","","","","",""
"","html-keyboard-response","137","600760","0.0-81.0-1.0","null","<p></p>","null","","","","","","","","","","","","","","","","","","",""
"","do_trial","138","605952","0.0-82.0-0.0","668.3999999761581","","","","50","1,0,0","1","highway","31","probe-114","1","0.3005279769381998","0.10305064242864415","0","","","","","","","",""
"","html-keyboard-response","139","606956","0.0-82.0-1.0","null","<p></p>","null","","","","","","","","","","","","","","","","","","",""
"","do_trial","140","611970","0.0-83.0-0.0","479.8000000715256","","","","51","1,0,0","1","highway","32","probe-59","1","0.2591303712296704","0.09179005244552914","0","","","","","","","",""
"","html-keyboard-response","141","612983","0.0-83.0-1.0","null","<p></p>","null","","","","","","","","","","","","","","","","","","",""
"","do_trial","142","617901","0.0-84.0-0.0","385.10000002384186","","","","50","1,0,0","1","highway","33","probe-32","0.9018389585948962","0.4733552511293509","0.13948244036475957","0","","","","","","","",""
"","html-keyboard-response","143","618910","0.0-84.0-1.0","null","<p></p>","null","","","","","","","","","","","","","","","","","","",""
"","do_trial","144","623744","0.0-85.0-0.0","302.2000000476837","","","","51","1,0,0","1","highway","34","probe-18","0.6787743142848232","0.46247725129124795","0.14976761079194403","0","","","","","","","",""
"","html-keyboard-response","145","624749","0.0-85.0-1.0","null","<p></p>","null","","","","","","","","","","","","","","","","","","",""
"","do_trial","146","629644","0.0-86.0-0.0","361.59999990463257","","","","49","0,0,0","1","highway","35","probe-71","0.5388495825565555","0.5264199525776495","0.14865235082145553","0","","","","","","","",""
"","html-keyboard-response","147","630647","0.0-86.0-1.0","null","<p></p>","null","","","","","","","","","","","","","","","","","","",""
"","do_trial","148","635516","0.0-87.0-0.0","346.89999997615814","","","","49","0,1,0","1","highway","36","probe-219","0.6364891025953557","0.29784533659616713","0.053216344448157135","0","","","","","","","",""
"","html-keyboard-response","149","636526","0.0-87.0-1.0","null","<p></p>","null","","","","","","","","","","","","","","","","","","",""
"","do_trial","150","641612","0.0-88.0-0.0","554.5","","","","49","1,0,0","1","highway","37","probe-02","0.5798867656816235","0.36201385730047514","0.12657340736701692","1","","","","","","","",""
"","html-keyboard-response","151","642614","0.0-88.0-1.0","null","<p></p>","null","","","","","","","","","","","","","","","","","","",""
"","do_trial","152","647661","0.0-89.0-0.0","521.5","","","","49","1,0,0","1","highway","38","probe-209","0.6930375553695841","0.40833518521171536","0.06002485467507441","1","","","","","","","",""
"","html-keyboard-response","153","648665","0.0-89.0-1.0","null","<p></p>","null","","","","","","","","","","","","","","","","","","",""
"","do_trial","154","654709","0.0-90.0-0.0","null","","","","null","1,1,0","1","highway","39","probe-164","0.5783745784270128","0.32090259820495215","0.14503571528322518","","","","","","","","",""
"","html-keyboard-response","155","655721","0.0-90.0-1.0","null","<p></p>","null","","","","","","","","","","","","","","","","","","",""
"","do_trial","156","660870","0.0-91.0-0.0","614.6000000238419","","","","49","1,0,0","1","highway","40","probe-58","0.4837577353841438","0.09200966394431323","0.19824537842344597","1","","","","","","","",""
"","html-keyboard-response","157","661876","0.0-91.0-1.0","null","<p></p>","null","","","","","","","","","","","","","","","","","","",""
"","do_trial","158","667097","0.0-92.0-0.0","697.2999999523163","","","","49","1,1,0","1","highway","41","probe-60","0.45767900737441025","0.19679777300398202","0.08270768666941371","1","","","","","","","",""
"","html-keyboard-response","159","668102","0.0-92.0-1.0","null","<p></p>","null","","","","","","","","","","","","","","","","","","",""
"","do_trial","160","672960","0.0-93.0-0.0","323.60000002384186","","","","49","0,0,1","1","highway","42","probe-81","0.34229192985730367","0.2278218640666404","0.2118796875968756","0","","","","","","","",""
"","html-keyboard-response","161","673963","0.0-93.0-1.0","null","<p></p>","null","","","","","","","","","","","","","","","","","","",""
"","do_trial","162","679062","0.0-94.0-0.0","566.7000000476837","","","","49","0,0,1","1","highway","43","probe-230","0.2704665928219349","0.1669672095935267","0.31091306334773217","0","","","","","","","",""
"","html-keyboard-response","163","680064","0.0-94.0-1.0","null","<p></p>","null","","","","","","","","","","","","","","","","","","",""
"","do_trial","164","685145","0.0-95.0-0.0","556.3000000715256","","","","49","1,0,0","1","highway","44","probe-64","0.3905462193495842","0.1736248670283797","0.33428049348250827","1","","","","","","","",""
"","html-keyboard-response","165","686149","0.0-95.0-1.0","null","<p></p>","null","","","","","","","","","","","","","","","","","","",""
"","do_trial","166","691374","0.0-96.0-0.0","696.6999999284744","","","","49","1,0,0","1","highway","45","probe-68","0.5103168257184664","0.2911792902934555","0.43385116364937293","1","","","","","","","",""
"","html-keyboard-response","167","692384","0.0-96.0-1.0","null","<p></p>","null","","","","","","","","","","","","","","","","","","",""
"","do_trial","168","697233","0.0-97.0-0.0","322.39999997615814","","","","49","1,0,1","1","highway","46","probe-01","0.3420153676025878","0.2928935971672207","0.5081727445839193","1","","","","","","","",""
"","html-keyboard-response","169","698249","0.0-97.0-1.0","null","<p></p>","null","","","","","","","","","","","","","","","","","","",""
"","do_trial","170","703761","0.0-98.0-0.0","979.6000000238419","","","","49","1,0,1","1","highway","47","probe-29","0.33745623580208534","0.3527174202392407","0.5656655657811352","1","","","","","","","",""
"","html-keyboard-response","171","704766","0.0-98.0-1.0","null","<p></p>","null","","","","","","","","","","","","","","","","","","",""
"","do_trial","172","709653","0.0-99.0-0.0","366.8000000715256","","","","49","1,0,1","1","highway","48","probe-51","0.33847205615962805","0.31034130171420654","0.5267746311120329","1","","","","","","","",""
"","html-keyboard-response","173","710660","0.0-99.0-1.0","null","<p></p>","null","","","","","","","","","","","","","","","","","","",""
"","do_trial","174","715903","0.0-100.0-0.0","715.2000000476837","","","","49","0,0,0","1","highway","49","probe-198","0.3524964444380031","0.2514537858404632","0.49777449952929753","0","","","","","","","",""
"","html-keyboard-response","175","716910","0.0-100.0-1.0","null","<p></p>","null","","","","","","","","","","","","","","","","","","",""
"","do_trial","176","722311","0.0-101.0-0.0","874.8999999761581","","","","49","1,0,0","1","highway","50","probe-13","0.4900555713747061","0.24124995288028867","0.6806714165760025","1","","","","","","","",""
"","html-keyboard-response","177","723324","0.0-101.0-1.0","null","<p></p>","null","","","","","","","","","","","","","","","","","","",""
"","do_trial","178","728509","0.0-102.0-0.0","661.1999999284744","","","","49","1,1,0","1","highway","51","probe-89","0.3850500195404712","0.1712990555613105","0.5917118425470667","1","","","","","","","",""
"","html-keyboard-response","179","729525","0.0-102.0-1.0","null","<p></p>","null","","","","","","","","","","","","","","","","","","",""
"","do_trial","180","734328","0.0-103.0-0.0","281.10000002384186","","","","49","0,0,0","1","highway","52","probe-30","0.3702222295665403","0.17532955200603093","0.5852786044813657","0","","","","","","","",""
"","html-keyboard-response","181","735337","0.0-103.0-1.0","null","<p></p>","null","","","","","","","","","","","","","","","","","","",""
"","do_trial","182","740487","0.0-104.0-0.0","622.1999999284744","","","","49","0,0,0","1","highway","53","probe-169","0.2067642255402121","0.2210275058642011","0.595693484844296","0","","","","","","","",""
"","html-keyboard-response","183","741498","0.0-104.0-1.0","null","<p></p>","null","","","","","","","","","","","","","","","","","","",""
"","do_trial","184","746836","0.0-105.0-0.0","802.1999999284744","","","","49","1,0,1","1","highway","54","probe-221","0.3416209967925057","0.18533461687585462","0.57590514875793","1","","","","","","","",""
"","html-keyboard-response","185","747847","0.0-105.0-1.0","null","<p></p>","null","","","","","","","","","","","","","","","","","","",""
"","do_trial","186","752844","0.0-106.0-0.0","477.89999997615814","","","","49","0,0,0","1","highway","55","probe-75","0.28054575705647566","0.06430450425537781","0.5969749807410066","0","","","","","","","",""
"","html-keyboard-response","187","753848","0.0-106.0-1.0","null","<p></p>","null","","","","","","","","","","","","","","","","","","",""
"","do_trial","188","758688","0.0-107.0-0.0","316.10000002384186","","","","49","0,0,1","1","highway","56","probe-137","0.24421029412083994","0.17538945624666885","0.6129580115200052","0","","","","","","","",""
"","html-keyboard-response","189","759704","0.0-107.0-1.0","null","<p></p>","null","","","","","","","","","","","","","","","","","","",""
"","do_trial","190","765258","0.0-108.0-0.0","1026.6000000238419","","","","49","1,1,1","1","highway","57","probe-48","0.34976125617001835","0.15580206585907752","0.6125205005874228","1","","","","","","","",""
"","html-keyboard-response","191","766261","0.0-108.0-1.0","null","<p></p>","null","","","","","","","","","","","","","","","","","","",""
"","do_trial","192","771560","0.0-109.0-0.0","777.2000000476837","","","","49","0,0,0","1","highway","58","probe-188","0.30574111061715903","0.14677957423234617","0.36791733198767845","0","","","","","","","",""
"","html-keyboard-response","193","772564","0.0-109.0-1.0","null","<p></p>","null","","","","","","","","","","","","","","","","","","",""
"","do_trial","194","777738","0.0-110.0-0.0","641.6000000238419","","","","49","0,0,0","1","highway","59","probe-194","0.2583136876958156","0.13978882609265422","0.4742517191634028","0","","","","","","","",""
"","html-keyboard-response","195","778743","0.0-110.0-1.0","null","<p></p>","null","","","","","","","","","","","","","","","","","","",""
"","do_trial","196","784143","0.0-111.0-0.0","877.3999999761581","","","","49","0,0,1","1","highway","60","probe-106","0.12212413438174279","0.12829091816253316","0.6024267272646101","0","","","","","","","",""
"","html-keyboard-response","197","785159","0.0-111.0-1.0","null","<p></p>","null","","","","","","","","","","","","","","","","","","",""
"","do_trial","198","790740","0.0-112.0-0.0","1055.2999999523163","","","","49","0,0,1","1","highway","61","probe-145","0.1985938016570585","0.1463836936750144","0.5993808069955476","0","","","","","","","",""
"","html-keyboard-response","199","791745","0.0-112.0-1.0","null","<p></p>","null","","","","","","","","","","","","","","","","","","",""
"","do_trial","200","796711","0.0-113.0-0.0","436","","","","50","1,0,0","1","highway","62","probe-98","0.2526130505599591","0.12286336489932854","0.6127053470412763","0","","","","","","","",""
"","html-keyboard-response","201","797714","0.0-113.0-1.0","null","<p></p>","null","","","","","","","","","","","","","","","","","","",""
"","do_trial","202","802832","0.0-114.0-0.0","590.9000000953674","","","","50","0,0,0","1","highway","63","probe-124","0.3303940765434837","0.12621727517511655","0.5821716668699862","0","","","","","","","",""
"","html-keyboard-response","203","803849","0.0-114.0-1.0","null","<p></p>","null","","","","","","","","","","","","","","","","","","",""
"","do_trial","204","808907","0.0-115.0-0.0","533.5","","","","51","1,0,1","1","highway","64","probe-34","0.38228728599801726","0.07229189139833077","0.5561580978184467","1","","","","","","","",""
"","html-keyboard-response","205","809913","0.0-115.0-1.0","null","<p></p>","null","","","","","","","","","","","","","","","","","","",""
"","do_trial","206","814789","0.0-116.0-0.0","357.5","","","","51","0,0,0","1","highway","65","probe-193","0.40144203674870865","0.08640270818373236","0.6674941273570723","0","","","","","","","",""
"","html-keyboard-response","207","815795","0.0-116.0-1.0","null","<p></p>","null","","","","","","","","","","","","","","","","","","",""
"","do_trial","208","820904","0.0-117.0-0.0","583.3999999761581","","","","51","0,0,0","1","highway","66","probe-69","0.4073056082876083","0.07379073485754604","0.6694370806118718","0","","","","","","","",""
"","html-keyboard-response","209","821912","0.0-117.0-1.0","null","<p></p>","null","","","","","","","","","","","","","","","","","","",""
"","do_trial","210","827187","0.0-118.0-0.0","753.5","","","","50","0,0,1","1","highway","67","probe-207","0.37841215922652427","0.08739063792824471","0.6776501984047547","0","","","","","","","",""
"","html-keyboard-response","211","828192","0.0-118.0-1.0","null","<p></p>","null","","","","","","","","","","","","","","","","","","",""
"","do_trial","212","833223","0.0-119.0-0.0","500.10000002384186","","","","49","0,0,0","1","highway","68","probe-212","0.29365040083232974","0.2171764388944037","0.6937482807778668","0","","","","","","","",""
"","html-keyboard-response","213","834239","0.0-119.0-1.0","null","<p></p>","null","","","","","","","","","","","","","","","","","","",""
"","do_trial","214","839367","0.0-120.0-0.0","606.7000000476837","","","","49","0,0,1","1","highway","69","probe-93","0.36745711109113527","0.24093970507315898","0.821490771096139","0","","","","","","","",""
"","html-keyboard-response","215","840375","0.0-120.0-1.0","null","<p></p>","null","","","","","","","","","","","","","","","","","","",""
"","do_bye","216","841889","0.0-121.0-0.0","null","","","","null","","","","","","","","","","","","","","","","",""
"","do_travel","217","847905","0.0-122.0-0.0","null","","","","null","","","","","","","","","","","","","","","","",""
"","do_welcome","218","849411","0.0-122.0-1.0","null","","","","null","","","","","","","","","","","","","","","","",""
"","do_trial","219","854933","0.0-123.0-0.0","988.5","","","","49","0,1,1","2","mountain","70","probe-88","0.2784900653990081","0.14495014028642256","1","0","","","","","","","",""
"","html-keyboard-response","220","855935","0.0-123.0-1.0","null","<p></p>","null","","","","","","","","","","","","","","","","","","",""
"","do_trial","221","860723","0.0-124.0-0.0","256.7000000476837","","","","49","1,0,1","2","mountain","71","probe-177","0.3635835029539191","0.1757518115706315","1","1","","","","","","","",""
"","html-keyboard-response","222","861738","0.0-124.0-1.0","null","<p></p>","null","","","","","","","","","","","","","","","","","","",""
"","do_trial","223","866604","0.0-125.0-0.0","335.5","","","","50","0,0,0","2","mountain","72","probe-126","0.3388609260506356","0.12844804745729613","0.884334408548048","0","","","","","","","",""
"","html-keyboard-response","224","867610","0.0-125.0-1.0","null","<p></p>","null","","","","","","","","","","","","","","","","","","",""
"","do_trial","225","872614","0.0-126.0-0.0","477.8000000715256","","","","50","1,0,1","2","mountain","73","probe-102","0.4171120461871668","0.13301931260314212","0.8340523292030944","0","","","","","","","",""
"","html-keyboard-response","226","873625","0.0-126.0-1.0","null","<p></p>","null","","","","","","","","","","","","","","","","","","",""
"","do_trial","227","878459","0.0-127.0-0.0","305.10000002384186","","","","51","1,0,1","2","mountain","74","probe-14","0.3516068199486593","0.20787488255687528","0.8797454138468784","1","","","","","","","",""
"","html-keyboard-response","228","879475","0.0-127.0-1.0","null","<p></p>","null","","","","","","","","","","","","","","","","","","",""
"","do_trial","229","884385","0.0-128.0-0.0","383.59999990463257","","","","51","1,1,0","2","mountain","75","probe-77","0.40053956917866546","0.20427518155871835","0.925529392611991","0","","","","","","","",""
"","html-keyboard-response","230","885389","0.0-128.0-1.0","null","<p></p>","null","","","","","","","","","","","","","","","","","","",""
"","do_trial","231","890265","0.0-129.0-0.0","349.09999990463257","","","","49","1,0,1","2","mountain","76","probe-218","0.5022456979200283","0.13357429306645766","0.6846885799434168","1","","","","","","","",""
"","html-keyboard-response","232","891268","0.0-129.0-1.0","null","<p></p>","null","","","","","","","","","","","","","","","","","","",""
"","do_trial","233","896209","0.0-130.0-0.0","419","","","","51","0,0,1","2","mountain","77","probe-136","0.43093171466562186","0.12248518054425235","0.6161095251971547","1","","","","","","","",""
"","html-keyboard-response","234","897217","0.0-130.0-1.0","null","<p></p>","null","","","","","","","","","","","","","","","","","","",""
"","do_trial","235","902103","0.0-131.0-0.0","366.10000002384186","","","","49","0,1,1","2","mountain","78","probe-171","0.37254227297715503","0.19362996013089281","0.6101283865139003","0","","","","","","","",""
"","html-keyboard-response","236","903113","0.0-131.0-1.0","null","<p></p>","null","","","","","","","","","","","","","","","","","","",""
"","do_trial","237","908290","0.0-132.0-0.0","647.8000000715256","","","","51","1,0,0","2","mountain","79","probe-202","0.3002096472875939","0.10846143156169813","0.6283444261965522","0","","","","","","","",""
"","html-keyboard-response","238","909304","0.0-132.0-1.0","null","<p></p>","null","","","","","","","","","","","","","","","","","","",""
"","do_trial","239","914133","0.0-133.0-0.0","295","","","","51","0,0,0","2","mountain","80","probe-187","0.27457199849603187","0.10138221564272164","0.536143696612632","0","","","","","","","",""
"","html-keyboard-response","240","915141","0.0-133.0-1.0","null","<p></p>","null","","","","","","","","","","","","","","","","","","",""
"","do_trial","241","919909","0.0-134.0-0.0","249.60000002384186","","","","51","0,0,1","2","mountain","81","probe-110","0.3933294597684012","0.14675349755287875","0.5759965489933633","1","","","","","","","",""
"","html-keyboard-response","242","920937","0.0-134.0-1.0","null","<p></p>","null","","","","","","","","","","","","","","","","","","",""
"","do_trial","243","926968","0.0-135.0-0.0","null","","","","null","0,0,1","2","mountain","82","probe-56","0.4830697946291024","0.16224775876442024","0.39331919186964115","","","","","","","","",""
"","html-keyboard-response","244","927973","0.0-135.0-1.0","null","<p></p>","null","","","","","","","","","","","","","","","","","","",""
"","do_trial","245","933820","0.0-136.0-0.0","1316","","","","51","1,1,0","2","mountain","83","probe-62","0.42633569339216015","0.11858262542353334","0.4154256992681865","0","","","","","","","",""
"","html-keyboard-response","246","934823","0.0-136.0-1.0","null","<p></p>","null","","","","","","","","","","","","","","","","","","",""
"","do_trial","247","940008","0.0-137.0-0.0","652","","","","49","1,0,0","2","mountain","84","probe-12","0.5154767849367936","0.06636632033426014","0.36008678761685003","1","","","","","","","",""
"","html-keyboard-response","248","941012","0.0-137.0-1.0","null","<p></p>","null","","","","","","","","","","","","","","","","","","",""
"","do_trial","249","946271","0.0-138.0-0.0","724.9000000953674","","","","49","1,0,1","2","mountain","85","probe-38","0.6729919276863187","0.11247144786822806","0.5529245233100673","1","","","","","","","",""
"","html-keyboard-response","250","947277","0.0-138.0-1.0","null","<p></p>","null","","","","","","","","","","","","","","","","","","",""
"","do_trial","251","952565","0.0-139.0-0.0","762.3000000715256","","","","49","0,0,1","2","mountain","86","probe-118","0.5148497105422091","0.0806153170726874","0.5402302170379573","0","","","","","","","",""
"","html-keyboard-response","252","953575","0.0-139.0-1.0","null","<p></p>","null","","","","","","","","","","","","","","","","","","",""
"","do_trial","253","959324","0.0-140.0-0.0","1215.2999999523163","","","","49","0,0,0","2","mountain","87","probe-165","0.5047744724809343","0.050286958879261726","0.49447730344599955","0","","","","","","","",""
"","html-keyboard-response","254","960329","0.0-140.0-1.0","null","<p></p>","null","","","","","","","","","","","","","","","","","","",""
"","do_trial","255","966024","0.0-141.0-0.0","1174.7999999523163","","","","49","1,1,0","2","mountain","88","probe-50","0.5060463289555925","0.05271411003415423","0.41748275233209436","1","","","","","","","",""
"","html-keyboard-response","256","967033","0.0-141.0-1.0","null","<p></p>","null","","","","","","","","","","","","","","","","","","",""
"","do_trial","257","973275","0.0-142.0-0.0","1716.4000000953674","","","","49","1,0,1","2","mountain","89","probe-100","0.4927170152603974","0.0772248630158235","0.4027621972930524","1","","","","","","","",""
"","html-keyboard-response","258","974291","0.0-142.0-1.0","null","<p></p>","null","","","","","","","","","","","","","","","","","","",""
"","do_trial","259","980187","0.0-143.0-0.0","1370.5","","","","49","0,0,0","2","mountain","90","probe-186","0.5028140709675343","0.15130549751065903","0.3334521551404589","0","","","","","","","",""
"","html-keyboard-response","260","981189","0.0-143.0-1.0","null","<p></p>","null","","","","","","","","","","","","","","","","","","",""
"","do_trial","261","986976","0.0-144.0-0.0","1259.3000000715256","","","","51","1,0,1","2","mountain","91","probe-52","0.5748600122578073","0.16307406515908926","0.27540129505760635","1","","","","","","","",""
"","html-keyboard-response","262","987983","0.0-144.0-1.0","null","<p></p>","null","","","","","","","","","","","","","","","","","","",""
"","do_trial","263","993215","0.0-145.0-0.0","708.3000000715256","","","","51","1,0,1","2","mountain","92","probe-55","0.7031899245908417","0.09522750242908665","0.3648991638235096","1","","","","","","","",""
"","html-keyboard-response","264","994229","0.0-145.0-1.0","null","<p></p>","null","","","","","","","","","","","","","","","","","","",""
"","do_trial","265","999399","0.0-146.0-0.0","647.2000000476837","","","","51","1,0,1","2","mountain","93","probe-208","0.6045827739755005","0.19010253089093584","0.21215229102752645","1","","","","","","","",""
"","html-keyboard-response","266","1000404","0.0-146.0-1.0","null","<p></p>","null","","","","","","","","","","","","","","","","","","",""
"","do_trial","267","1005550","0.0-147.0-0.0","618.6000000238419","","","","51","0,0,0","2","mountain","94","probe-127","0.47388064963893445","0.1940284835226735","0.2966148078315602","0","","","","","","","",""
"","html-keyboard-response","268","1006561","0.0-147.0-1.0","null","<p></p>","null","","","","","","","","","","","","","","","","","","",""
"","do_trial","269","1011591","0.0-148.0-0.0","499.7999999523163","","","","51","0,0,0","2","mountain","95","probe-37","0.4038260896784785","0.09744333835117543","0.28000083526737024","0","","","","","","","",""
"","html-keyboard-response","270","1012599","0.0-148.0-1.0","null","<p></p>","null","","","","","","","","","","","","","","","","","","",""
"","do_trial","271","1017575","0.0-149.0-0.0","453.39999997615814","","","","51","1,0,0","2","mountain","96","probe-65","0.37284870009316406","0.07443664312266117","0.21115939251236504","0","","","","","","","",""
"","html-keyboard-response","272","1018584","0.0-149.0-1.0","null","<p></p>","null","","","","","","","","","","","","","","","","","","",""
"","do_trial","273","1023351","0.0-150.0-0.0","247.69999992847443","","","","50","1,0,0","2","mountain","97","probe-173","0.5084040888510718","0.050010755698745496","0.28046306770127133","0","","","","","","","",""
"","html-keyboard-response","274","1024356","0.0-150.0-1.0","null","<p></p>","null","","","","","","","","","","","","","","","","","","",""
"","do_trial","275","1029241","0.0-151.0-0.0","353.3000000715256","","","","49","1,0,0","2","mountain","98","probe-142","0.5851770861567254","0.05506963198350725","0.1806003878734485","1","","","","","","","",""
"","html-keyboard-response","276","1030246","0.0-151.0-1.0","null","<p></p>","null","","","","","","","","","","","","","","","","","","",""
"","do_trial","277","1035221","0.0-152.0-0.0","442.39999997615814","","","","49","1,0,0","2","mountain","99","probe-49","0.5870029699146592","0.09913006777655978","0.24616636123510924","1","","","","","","","",""
"","html-keyboard-response","278","1036224","0.0-152.0-1.0","null","<p></p>","null","","","","","","","","","","","","","","","","","","",""
"","do_trial","279","1041561","0.0-153.0-0.0","810.7999999523163","","","","49","1,1,0","2","mountain","100","probe-67","0.6430617994073238","0.16692038492888436","0.23269698434538744","1","","","","","","","",""
"","html-keyboard-response","280","1042563","0.0-153.0-1.0","null","<p></p>","null","","","","","","","","","","","","","","","","","","",""
"","do_trial","281","1047625","0.0-154.0-0.0","540.6000000238419","","","","49","1,1,0","2","mountain","101","probe-94","0.6082095621112782","0.1608650090808468","0.46304414808932093","1","","","","","","","",""
"","html-keyboard-response","282","1048642","0.0-154.0-1.0","null","<p></p>","null","","","","","","","","","","","","","","","","","","",""
"","do_trial","283","1053782","0.0-155.0-0.0","605.5","","","","49","1,0,1","2","mountain","102","probe-45","0.6640269403962396","0.12902198491442518","0.40318758021950707","1","","","","","","","",""
"","html-keyboard-response","284","1054793","0.0-155.0-1.0","null","<p></p>","null","","","","","","","","","","","","","","","","","","",""
"","do_trial","285","1059807","0.0-156.0-0.0","491.10000002384186","","","","49","1,0,1","2","mountain","103","probe-162","0.718283426969076","0.14851515418737177","0.387600419250891","1","","","","","","","",""
"","html-keyboard-response","286","1060812","0.0-156.0-1.0","null","<p></p>","null","","","","","","","","","","","","","","","","","","",""
"","do_trial","287","1065942","0.0-157.0-0.0","602.7000000476837","","","","49","1,0,1","2","mountain","104","probe-201","0.6172274601878732","0.15680696776631511","0.3735450497586604","1","","","","","","","",""
"","html-keyboard-response","288","1066947","0.0-157.0-1.0","null","<p></p>","null","","","","","","","","","","","","","","","","","","",""
"","do_trial","289","1072618","0.0-158.0-0.0","1147.6999999284744","","","","49","0,0,1","2","mountain","105","probe-90","0.6959098290291037","0.05967249423689859","0.2714057087468357","0","","","","","","","",""
"","html-keyboard-response","290","1073628","0.0-158.0-1.0","null","<p></p>","null","","","","","","","","","","","","","","","","","","",""
"","do_trial","291","1078627","0.0-159.0-0.0","467.7999999523163","","","","49","1,0,0","2","mountain","106","probe-66","0.5730176418440037","0.17400153072844163","0.2371131527394177","1","","","","","","","",""
"","html-keyboard-response","292","1079641","0.0-159.0-1.0","null","<p></p>","null","","","","","","","","","","","","","","","","","","",""
"","do_trial","293","1085417","0.0-160.0-0.0","1241.7999999523163","","","","49","0,0,0","2","mountain","107","probe-181","0.6383697534268895","0.3366311701199983","0.06972045946564148","0","","","","","","","",""
"","html-keyboard-response","294","1086431","0.0-160.0-1.0","null","<p></p>","null","","","","","","","","","","","","","","","","","","",""
"","do_trial","295","1091375","0.0-161.0-0.0","421.7999999523163","","","","49","1,0,0","2","mountain","108","probe-15","0.646639760411365","0.2339976584657866","0.21678375398555347","1","","","","","","","",""
"","html-keyboard-response","296","1092390","0.0-161.0-1.0","null","<p></p>","null","","","","","","","","","","","","","","","","","","",""
"","do_trial","297","1098303","0.0-162.0-0.0","1390.7999999523163","","","","49","0,0,0","2","mountain","109","probe-78","0.7703132339285191","0.0622531808004938","0.33013387773278324","0","","","","","","","",""
"","html-keyboard-response","298","1099310","0.0-162.0-1.0","null","<p></p>","null","","","","","","","","","","","","","","","","","","",""
"","do_bye","299","1100823","0.0-163.0-0.0","null","","","","null","","","","","","","","","","","","","","","","",""
"","do_travel","300","1106827","0.0-164.0-0.0","null","","","","null","","","","","","","","","","","","","","","","",""
"","do_welcome","301","1108342","0.0-164.0-1.0","null","","","","null","","","","","","","","","","","","","","","","",""
"","do_trial","302","1114124","0.0-165.0-0.0","1262.8999999761581","","","","49","1,0,0","3","coast","110","probe-80","1","0.08534292841108652","0.3185306282224284","1","","","","","","","",""
"","html-keyboard-response","303","1115128","0.0-165.0-1.0","null","<p></p>","null","","","","","","","","","","","","","","","","","","",""
"","do_trial","304","1120122","0.0-166.0-0.0","466.8000000715256","","","","49","1,0,0","3","coast","111","probe-161","1","0.08719153603699958","0.18823405811162963","1","","","","","","","",""
"","html-keyboard-response","305","1121126","0.0-166.0-1.0","null","<p></p>","null","","","","","","","","","","","","","","","","","","",""
"","do_trial","306","1126060","0.0-167.0-0.0","403","","","","50","1,0,0","3","coast","112","probe-152","0.9347388665508072","0.20954691095857642","0.1753922728877564","0","","","","","","","",""
"","html-keyboard-response","307","1127073","0.0-167.0-1.0","null","<p></p>","null","","","","","","","","","","","","","","","","","","",""
"","do_trial","308","1131892","0.0-168.0-0.0","295","","","","50","1,0,0","3","coast","113","probe-41","0.8303441301793116","0.1020345875597717","0.14991823853863476","0","","","","","","","",""
"","html-keyboard-response","309","1132897","0.0-168.0-1.0","null","<p></p>","null","","","","","","","","","","","","","","","","","","",""
"","do_trial","310","1137927","0.0-169.0-0.0","506.59999990463257","","","","51","1,0,0","3","coast","114","probe-227","0.701457169007853","0.09462441376996829","0.24079024082990075","0","","","","","","","",""
"","html-keyboard-response","311","1138937","0.0-169.0-1.0","null","<p></p>","null","","","","","","","","","","","","","","","","","","",""
"","do_trial","312","1144310","0.0-170.0-0.0","843.8999999761581","","","","51","1,0,0","3","coast","115","probe-104","0.563633290201805","0.1528940492352948","0.12300905433124505","0","","","","","","","",""
"","html-keyboard-response","313","1145318","0.0-170.0-1.0","null","<p></p>","null","","","","","","","","","","","","","","","","","","",""
"","do_trial","314","1150296","0.0-171.0-0.0","448.10000002384186","","","","49","1,0,0","3","coast","116","probe-09","0.5388818584605736","0.05764961140256743","0.16609854000279467","1","","","","","","","",""
"","html-keyboard-response","315","1151308","0.0-171.0-1.0","null","<p></p>","null","","","","","","","","","","","","","","","","","","",""
"","do_trial","316","1156196","0.0-172.0-0.0","360.40000009536743","","","","49","1,0,0","3","coast","117","probe-25","0.6440161491422992","0.10495573506747392","0.07325502362441823","1","","","","","","","",""
"","html-keyboard-response","317","1157200","0.0-172.0-1.0","null","<p></p>","null","","","","","","","","","","","","","","","","","","",""
"","do_trial","318","1162340","0.0-173.0-0.0","613","","","","49","1,0,0","3","coast","118","probe-79","0.6551828135993216","0.1786537516263543","0.21577358347657274","1","","","","","","","",""
"","html-keyboard-response","319","1163350","0.0-173.0-1.0","null","<p></p>","null","","","","","","","","","","","","","","","","","","",""
"","do_trial","320","1168389","0.0-174.0-0.0","514.6000000238419","","","","49","1,0,0","3","coast","119","probe-228","0.6119428343990382","0.09425737737175414","0.24938209208993425","1","","","","","","","",""
"","html-keyboard-response","321","1169395","0.0-174.0-1.0","null","<p></p>","null","","","","","","","","","","","","","","","","","","",""
"","do_trial","322","1174480","0.0-175.0-0.0","560.2999999523163","","","","49","0,0,0","3","coast","120","probe-189","0.6400204226615192","0.3562366719519996","0.2800550221683073","0","","","","","","","",""
"","html-keyboard-response","323","1175488","0.0-175.0-1.0","null","<p></p>","null","","","","","","","","","","","","","","","","","","",""
"","do_trial","324","1180554","0.0-176.0-0.0","531.0999999046326","","","","49","1,0,0","3","coast","121","probe-119","0.5622811301991347","0.2931442406331325","0.28596676196902243","1","","","","","","","",""
"","html-keyboard-response","325","1181557","0.0-176.0-1.0","null","<p></p>","null","","","","","","","","","","","","","","","","","","",""
"","do_trial","326","1186838","0.0-177.0-0.0","757.7999999523163","","","","49","0,0,0","3","coast","122","probe-179","0.29552525417110964","0.2379301373811649","0.21790937865206897","0","","","","","","","",""
"","html-keyboard-response","327","1187854","0.0-177.0-1.0","null","<p></p>","null","","","","","","","","","","","","","","","","","","",""
"","do_trial","328","1193116","0.0-178.0-0.0","735.2999999523163","","","","49","1,1,0","3","coast","123","probe-200","0.2487218626947009","0.31166775490892656","0.27769352201449465","1","","","","","","","",""
"","html-keyboard-response","329","1194122","0.0-178.0-1.0","null","<p></p>","null","","","","","","","","","","","","","","","","","","",""
"","do_trial","330","1199082","0.0-179.0-0.0","435.7999999523163","","","","49","0,1,0","3","coast","124","probe-53","0.22015840586151725","0.46376979506110827","0.2765345156226996","0","","","","","","","",""
"","html-keyboard-response","331","1200084","0.0-179.0-1.0","null","<p></p>","null","","","","","","","","","","","","","","","","","","",""
"","do_trial","332","1205074","0.0-180.0-0.0","457.60000002384186","","","","49","0,0,1","3","coast","125","probe-76","0.22395930995078417","0.45520757609895873","0.2900339491256312","0","","","","","","","",""
"","html-keyboard-response","333","1206095","0.0-180.0-1.0","null","<p></p>","null","","","","","","","","","","","","","","","","","","",""
"","do_trial","334","1211168","0.0-181.0-0.0","542.6000000238419","","","","49","0,1,1","3","coast","126","probe-26","0.10033144701726285","0.42340416436357586","0.3806550169518446","0","","","","","","","",""
"","html-keyboard-response","335","1212180","0.0-181.0-1.0","null","<p></p>","null","","","","","","","","","","","","","","","","","","",""
"","do_trial","336","1217103","0.0-182.0-0.0","399","","","","49","0,0,0","3","coast","127","probe-148","0.0725056971938281","0.4779121091666799","0.43425307441072364","0","","","","","","","",""
"","html-keyboard-response","337","1218112","0.0-182.0-1.0","null","<p></p>","null","","","","","","","","","","","","","","","","","","",""
"","do_trial","338","1223211","0.0-183.0-0.0","569.2999999523163","","","","49","0,1,0","3","coast","128","probe-175","0.051262894315448976","0.5691998965702831","0.4773160699076522","0","","","","","","","",""
"","html-keyboard-response","339","1224214","0.0-183.0-1.0","null","<p></p>","null","","","","","","","","","","","","","","","","","","",""
"","do_trial","340","1228987","0.0-184.0-0.0","250.70000004768372","","","","51","0,0,0","3","coast","129","probe-116","0.1094224842153226","0.5438903682299464","0.39037861531139395","0","","","","","","","",""
"","html-keyboard-response","341","1229988","0.0-184.0-1.0","null","<p></p>","null","","","","","","","","","","","","","","","","","","",""
"","do_trial","342","1235147","0.0-185.0-0.0","639.3999999761581","","","","51","0,0,0","3","coast","130","probe-70","0.30168051696740483","0.5853146908529022","0.11036315720243163","0","","","","","","","",""
"","html-keyboard-response","343","1236155","0.0-185.0-1.0","null","<p></p>","null","","","","","","","","","","","","","","","","","","",""
"","do_trial","344","1241255","0.0-186.0-0.0","566","","","","51","1,0,0","3","coast","131","probe-199","0.3483391743542887","0.5145947920545004","0.0521877816404816","0","","","","","","","",""
"","html-keyboard-response","345","1242269","0.0-186.0-1.0","null","<p></p>","null","","","","","","","","","","","","","","","","","","",""
"","do_trial","346","1247031","0.0-187.0-0.0","242.39999997615814","","","","50","0,0,1","3","coast","132","probe-172","0.23576688597112871","0.6482153851671265","0.11356706128521048","0","","","","","","","",""
"","html-keyboard-response","347","1248041","0.0-187.0-1.0","null","<p></p>","null","","","","","","","","","","","","","","","","","","",""
"","do_trial","348","1253119","0.0-188.0-0.0","546.8999999761581","","","","50","0,0,0","3","coast","133","probe-156","0.2533710491877102","0.5898907624898947","0.053749792646578635","0","","","","","","","",""
"","html-keyboard-response","349","1254131","0.0-188.0-1.0","null","<p></p>","null","","","","","","","","","","","","","","","","","","",""
"","do_trial","350","1259153","0.0-189.0-0.0","490.39999997615814","","","","51","0,0,0","3","coast","134","probe-87","0.35862434441590507","0.5137681476059662","0.11834658355660312","0","","","","","","","",""
"","html-keyboard-response","351","1260158","0.0-189.0-1.0","null","<p></p>","null","","","","","","","","","","","","","","","","","","",""
"","do_trial","352","1265081","0.0-190.0-0.0","391.5","","","","49","0,0,0","3","coast","135","probe-63","0.2728091454546821","0.5280432927062649","0.13927806520077066","0","","","","","","","",""
"","html-keyboard-response","353","1266086","0.0-190.0-1.0","null","<p></p>","null","","","","","","","","","","","","","","","","","","",""
"","do_trial","354","1271078","0.0-191.0-0.0","465.90000009536743","","","","49","0,0,1","3","coast","136","probe-217","0.22306604407573097","0.5651076635530808","0.3075199046420331","0","","","","","","","",""
"","html-keyboard-response","355","1272084","0.0-191.0-1.0","null","<p></p>","null","","","","","","","","","","","","","","","","","","",""
"","do_trial","356","1277005","0.0-192.0-0.0","393.7999999523163","","","","50","0,1,0","3","coast","137","probe-107","0.21882785662549986","0.6513769078754656","0.3926405171082961","1","","","","","","","",""
"","html-keyboard-response","357","1278011","0.0-192.0-1.0","null","<p></p>","null","","","","","","","","","","","","","","","","","","",""
"","do_trial","358","1283815","0.0-193.0-0.0","1278","","","","50","0,1,0","3","coast","138","probe-105","0.07402633125495461","0.584849155861727","0.3111033173156524","1","","","","","","","",""
"","html-keyboard-response","359","1284826","0.0-193.0-1.0","null","<p></p>","null","","","","","","","","","","","","","","","","","","",""
"","do_trial","360","1290509","0.0-194.0-0.0","1158.6000000238419","","","","50","0,1,0","3","coast","139","probe-83","0.11295784470094919","0.6261304599116668","0.2744438470493907","1","","","","","","","",""
"","html-keyboard-response","361","1291511","0.0-194.0-1.0","null","<p></p>","null","","","","","","","","","","","","","","","","","","",""
"","do_trial","362","1296480","0.0-195.0-0.0","444.39999997615814","","","","50","0,1,0","3","coast","140","probe-16","0.05955836732398647","0.5496386136852228","0.18170876542504055","1","","","","","","","",""
"","html-keyboard-response","363","1297496","0.0-195.0-1.0","null","<p></p>","null","","","","","","","","","","","","","","","","","","",""
"","do_trial","364","1302535","0.0-196.0-0.0","505.6999999284744","","","","50","0,0,0","3","coast","141","probe-167","0.16507457398564382","0.5589180724746341","0.09009937217121644","0","","","","","","","",""
"","html-keyboard-response","365","1303540","0.0-196.0-1.0","null","<p></p>","null","","","","","","","","","","","","","","","","","","",""
"","do_trial","366","1308645","0.0-197.0-0.0","585.5999999046326","","","","50","0,1,0","3","coast","142","probe-158","0.16365413633166004","0.6486700501357625","0.11650025950669005","1","","","","","","","",""
"","html-keyboard-response","367","1309654","0.0-197.0-1.0","null","<p></p>","null","","","","","","","","","","","","","","","","","","",""
"","do_trial","368","1314592","0.0-198.0-0.0","412.89999997615814","","","","50","0,1,0","3","coast","143","probe-153","0.05110526962978861","0.6290798801179011","0.23095250893967254","1","","","","","","","",""
"","html-keyboard-response","369","1315598","0.0-198.0-1.0","null","<p></p>","null","","","","","","","","","","","","","","","","","","",""
"","do_trial","370","1320596","0.0-199.0-0.0","467.89999997615814","","","","50","0,0,0","3","coast","144","probe-210","0.11380009666693618","0.5074455753201178","0.26532656927091053","0","","","","","","","",""
"","html-keyboard-response","371","1321604","0.0-199.0-1.0","null","<p></p>","null","","","","","","","","","","","","","","","","","","",""
"","do_trial","372","1326916","0.0-200.0-0.0","783.1000000238419","","","","50","0,1,0","3","coast","145","probe-23","0.1386966140899004","0.605999452778012","0.2542194431905853","1","","","","","","","",""
"","html-keyboard-response","373","1327918","0.0-200.0-1.0","null","<p></p>","null","","","","","","","","","","","","","","","","","","",""
"","do_trial","374","1333538","0.0-201.0-0.0","1094.4000000953674","","","","50","0,1,0","3","coast","146","probe-174","0.0780525257728534","0.549049363344229","0.17838811535342153","1","","","","","","","",""
"","html-keyboard-response","375","1334548","0.0-201.0-1.0","null","<p></p>","null","","","","","","","","","","","","","","","","","","",""
"","do_trial","376","1339826","0.0-202.0-0.0","753.1999999284744","","","","50","0,1,0","3","coast","147","probe-131","0.18835228690319392","0.6026294609771428","0.062452300858568253","1","","","","","","","",""
"","html-keyboard-response","377","1340832","0.0-202.0-1.0","null","<p></p>","null","","","","","","","","","","","","","","","","","","",""
"","do_trial","378","1346004","0.0-203.0-0.0","646.5","","","","50","0,0,0","3","coast","148","probe-185","0.30804842966288803","0.6442994181972418","0.1534604858427443","0","","","","","","","",""
"","html-keyboard-response","379","1347020","0.0-203.0-1.0","null","<p></p>","null","","","","","","","","","","","","","","","","","","",""
"","do_trial","380","1351821","0.0-204.0-0.0","267.6999999284744","","","","50","1,1,0","3","coast","149","probe-180","0.16316053104901015","0.42935665938290307","0.16728224234382033","1","","","","","","","",""
"","html-keyboard-response","381","1352824","0.0-204.0-1.0","null","<p></p>","null","","","","","","","","","","","","","","","","","","",""
"","do_bye","382","1354342","0.0-205.0-0.0","null","","","","null","","","","","","","","","","","","","","","","",""
"","do_travel","383","1360357","0.0-206.0-0.0","null","","","","null","","","","","","","","","","","","","","","","",""
"","do_welcome","384","1361860","0.0-206.0-1.0","null","","","","null","","","","","","","","","","","","","","","","",""
"","do_trial","385","1367127","0.0-207.0-0.0","736.1000000238419","","","","49","0,1,1","4","countryside","150","probe-170","0.054887837089812874","1","0.21710735812305337","0","","","","","","","",""
"","html-keyboard-response","386","1368139","0.0-207.0-1.0","null","<p></p>","null","","","","","","","","","","","","","","","","","","",""
"","do_trial","387","1372940","0.0-208.0-0.0","270.10000002384186","","","","49","0,1,0","4","countryside","151","probe-143","0.07728943670438024","1","0.258796572786937","0","","","","","","","",""
"","html-keyboard-response","388","1373944","0.0-208.0-1.0","null","<p></p>","null","","","","","","","","","","","","","","","","","","",""
"","do_trial","389","1378747","0.0-209.0-0.0","269.10000002384186","","","","50","0,1,0","4","countryside","152","probe-20","0.12967664591812644","0.9193887552412912","0.1557328681101677","1","","","","","","","",""
"","html-keyboard-response","390","1379759","0.0-209.0-1.0","null","<p></p>","null","","","","","","","","","","","","","","","","","","",""
"","do_trial","391","1384825","0.0-210.0-0.0","536.8000000715256","","","","50","0,1,1","4","countryside","153","probe-191","0.12736166177902214","0.8581232709100644","0.1755623000849743","1","","","","","","","",""
"","html-keyboard-response","392","1385830","0.0-210.0-1.0","null","<p></p>","null","","","","","","","","","","","","","","","","","","",""
"","do_trial","393","1390805","0.0-211.0-0.0","445.7999999523163","","","","51","0,1,1","4","countryside","154","probe-159","0.1730369306198249","0.8100521745687178","0.13442628376020938","1","","","","","","","",""
"","html-keyboard-response","394","1391808","0.0-211.0-1.0","null","<p></p>","null","","","","","","","","","","","","","","","","","","",""
"","do_trial","395","1396652","0.0-212.0-0.0","309.7999999523163","","","","51","0,1,0","4","countryside","155","probe-128","0.17007279580945123","0.8058724966264785","0.3550939572550167","0","","","","","","","",""
"","html-keyboard-response","396","1397654","0.0-212.0-1.0","null","<p></p>","null","","","","","","","","","","","","","","","","","","",""
"","do_trial","397","1402687","0.0-213.0-0.0","507.10000002384186","","","","50","0,1,1","4","countryside","156","probe-195","0.21035348689739475","0.7271528105314853","0.347774238683229","1","","","","","","","",""
"","html-keyboard-response","398","1403703","0.0-213.0-1.0","null","<p></p>","null","","","","","","","","","","","","","","","","","","",""
"","do_trial","399","1408728","0.0-214.0-0.0","491.7999999523163","","","","50","1,1,1","4","countryside","157","probe-168","0.11183249882856137","0.5415533029191779","0.4384716501307738","1","","","","","","","",""
"","html-keyboard-response","400","1409731","0.0-214.0-1.0","null","<p></p>","null","","","","","","","","","","","","","","","","","","",""
"","do_trial","401","1414807","0.0-215.0-0.0","543.7999999523163","","","","50","0,1,0","4","countryside","158","probe-46","0.1330640293580555","0.5038396897015128","0.3289346141067659","1","","","","","","","",""
"","html-keyboard-response","402","1415811","0.0-215.0-1.0","null","<p></p>","null","","","","","","","","","","","","","","","","","","",""
"","do_trial","403","1420779","0.0-216.0-0.0","432.90000009536743","","","","50","0,0,1","4","countryside","159","probe-73","0.14045775410782482","0.5980712222452694","0.31562129475872086","0","","","","","","","",""
"","html-keyboard-response","404","1421780","0.0-216.0-1.0","null","<p></p>","null","","","","","","","","","","","","","","","","","","",""
"","do_trial","405","1429159","0.0-217.0-0.0","2855.2000000476837","","","","50","0,1,1","4","countryside","160","probe-39","0.11458546094991427","0.5522785815135518","0.3419931612088791","1","","","","","","","",""
"","html-keyboard-response","406","1430161","0.0-217.0-1.0","null","<p></p>","null","","","","","","","","","","","","","","","","","","",""
"","do_trial","407","1435568","0.0-218.0-0.0","883.8000000715256","","","","50","0,1,1","4","countryside","161","probe-03","0.09348139463589278","0.4619704498874447","0.4254628183346625","1","","","","","","","",""
"","html-keyboard-response","408","1436575","0.0-218.0-1.0","null","<p></p>","null","","","","","","","","","","","","","","","","","","",""
"","do_trial","409","1441383","0.0-219.0-0.0","278.6999999284744","","","","50","0,0,0","4","countryside","162","probe-47","0.17636381957665168","0.3750305240447112","0.4147477699903144","0","","","","","","","",""
"","html-keyboard-response","410","1442390","0.0-219.0-1.0","null","<p></p>","null","","","","","","","","","","","","","","","","","","",""
"","do_trial","411","1447448","0.0-220.0-0.0","532.7000000476837","","","","50","0,1,0","4","countryside","163","probe-125","0.21632714619726023","0.18142900545770158","0.5006145391229452","1","","","","","","","",""
"","html-keyboard-response","412","1448450","0.0-220.0-1.0","null","<p></p>","null","","","","","","","","","","","","","","","","","","",""
"","do_trial","413","1453310","0.0-221.0-0.0","335.2000000476837","","","","50","1,0,0","4","countryside","164","probe-190","0.4081943903725649","0.12756115251855518","0.5562328414361197","0","","","","","","","",""
"","html-keyboard-response","414","1454319","0.0-221.0-1.0","null","<p></p>","null","","","","","","","","","","","","","","","","","","",""
"","do_trial","415","1459278","0.0-222.0-0.0","438.39999997615814","","","","50","1,1,1","4","countryside","165","probe-226","0.3972550312262654","0.15122484136444078","0.690907557402614","1","","","","","","","",""
"","html-keyboard-response","416","1460290","0.0-222.0-1.0","null","<p></p>","null","","","","","","","","","","","","","","","","","","",""
"","do_trial","417","1465568","0.0-223.0-0.0","757.5","","","","50","1,0,0","4","countryside","166","probe-92","0.3949091622413784","0.1698372561100481","0.6141269248545499","0","","","","","","","",""
"","html-keyboard-response","418","1466572","0.0-223.0-1.0","null","<p></p>","null","","","","","","","","","","","","","","","","","","",""
"","do_trial","419","1471497","0.0-224.0-0.0","392","","","","50","0,1,0","4","countryside","167","probe-05","0.302564793117356","0.11283860742942536","0.503938147529774","1","","","","","","","",""
"","html-keyboard-response","420","1472507","0.0-224.0-1.0","null","<p></p>","null","","","","","","","","","","","","","","","","","","",""
"","do_trial","421","1478470","0.0-225.0-0.0","1434.5999999046326","","","","50","0,0,1","4","countryside","168","probe-28","0.35742343566176377","0.07807563460320839","0.5743749463493382","0","","","","","","","",""
"","html-keyboard-response","422","1479474","0.0-225.0-1.0","null","<p></p>","null","","","","","","","","","","","","","","","","","","",""
"","do_trial","423","1485295","0.0-226.0-0.0","1291.7000000476837","","","","50","0,0,0","4","countryside","169","probe-216","0.44891946220528","0.06747751153888427","0.6577634650530901","0","","","","","","","",""
"","html-keyboard-response","424","1486313","0.0-226.0-1.0","null","<p></p>","null","","","","","","","","","","","","","","","","","","",""
"","do_trial","425","1492421","0.0-227.0-0.0","1585.2999999523163","","","","50","1,0,0","4","countryside","170","probe-96","0.32406408037894435","0.0846380081353048","0.6588338296441256","0","","","","","","","",""
"","html-keyboard-response","426","1493433","0.0-227.0-1.0","null","<p></p>","null","","","","","","","","","","","","","","","","","","",""
"","do_trial","427","1498272","0.0-228.0-0.0","310.60000002384186","","","","50","0,1,1","4","countryside","171","probe-134","0.27899125485466364","0.1990766408092604","0.6254255698208427","1","","","","","","","",""
"","html-keyboard-response","428","1499277","0.0-228.0-1.0","null","<p></p>","null","","","","","","","","","","","","","","","","","","",""
"","do_trial","429","1504178","0.0-229.0-0.0","372.89999997615814","","","","50","0,1,1","4","countryside","172","probe-122","0.33998504469013896","0.20705065140660706","0.5851792436832761","1","","","","","","","",""
"","html-keyboard-response","430","1505183","0.0-229.0-1.0","null","<p></p>","null","","","","","","","","","","","","","","","","","","",""
"","do_trial","431","1510068","0.0-230.0-0.0","357","","","","50","0,1,1","4","countryside","173","probe-204","0.3188339113765513","0.14414545360242756","0.6540359972684017","1","","","","","","","",""
"","html-keyboard-response","432","1511074","0.0-230.0-1.0","null","<p></p>","null","","","","","","","","","","","","","","","","","","",""
"","do_trial","433","1516175","0.0-231.0-0.0","569.3000000715256","","","","50","0,0,1","4","countryside","174","probe-42","0.28907783247454855","0.07672611779759662","0.7912122863703164","0","","","","","","","",""
"","html-keyboard-response","434","1517178","0.0-231.0-1.0","null","<p></p>","null","","","","","","","","","","","","","","","","","","",""
"","do_trial","435","1522040","0.0-232.0-0.0","340.89999997615814","","","","50","0,0,0","4","countryside","175","probe-150","0.24691986390669854","0.07325507781648564","0.6418041809835714","0","","","","","","","",""
"","html-keyboard-response","436","1523048","0.0-232.0-1.0","null","<p></p>","null","","","","","","","","","","","","","","","","","","",""
"","do_trial","437","1527893","0.0-233.0-0.0","313.60000002384186","","","","50","1,0,1","4","countryside","176","probe-197","0.32359202094855444","0.17189621865665722","0.6793920392244863","0","","","","","","","",""
"","html-keyboard-response","438","1528903","0.0-233.0-1.0","null","<p></p>","null","","","","","","","","","","","","","","","","","","",""
"","do_trial","439","1533715","0.0-234.0-0.0","290.3000000715256","","","","51","1,0,1","4","countryside","177","probe-176","0.20860820891755608","0.06911974056687","0.6124750193341632","1","","","","","","","",""
"","html-keyboard-response","440","1534731","0.0-234.0-1.0","null","<p></p>","null","","","","","","","","","","","","","","","","","","",""
"","do_trial","441","1540006","0.0-235.0-0.0","750.3000000715256","","","","51","0,0,0","4","countryside","178","probe-123","0.20644469170507415","0.18696244360669345","0.5627355480115844","0","","","","","","","",""
"","html-keyboard-response","442","1541020","0.0-235.0-1.0","null","<p></p>","null","","","","","","","","","","","","","","","","","","",""
"","do_trial","443","1545850","0.0-236.0-0.0","303.3000000715256","","","","51","1,0,1","4","countryside","179","probe-112","0.2442636326303761","0.1686643426035528","0.6029342977455844","1","","","","","","","",""
"","html-keyboard-response","444","1546862","0.0-236.0-1.0","null","<p></p>","null","","","","","","","","","","","","","","","","","","",""
"","do_trial","445","1551954","0.0-237.0-0.0","565.8999999761581","","","","51","0,1,0","4","countryside","180","probe-154","0.46394593236783777","0.18241107467169332","0.5689937753666372","0","","","","","","","",""
"","html-keyboard-response","446","1552967","0.0-237.0-1.0","null","<p></p>","null","","","","","","","","","","","","","","","","","","",""
"","do_trial","447","1557856","0.0-238.0-0.0","360.60000002384186","","","","51","0,0,0","4","countryside","181","probe-22","0.48990432258745253","0.1349082024153346","0.5076264603262092","0","","","","","","","",""
"","html-keyboard-response","448","1558867","0.0-238.0-1.0","null","<p></p>","null","","","","","","","","","","","","","","","","","","",""
"","do_trial","449","1563677","0.0-239.0-0.0","280.7999999523163","","","","51","0,0,0","4","countryside","182","probe-72","0.3388935359934196","0.06784349013327928","0.47175254295238284","0","","","","","","","",""
"","html-keyboard-response","450","1564681","0.0-239.0-1.0","null","<p></p>","null","","","","","","","","","","","","","","","","","","",""
"","do_trial","451","1569656","0.0-240.0-0.0","446.2999999523163","","","","49","0,0,0","4","countryside","183","probe-54","0.16418962095191794","0.08802511949918759","0.49040311479379456","0","","","","","","","",""
"","html-keyboard-response","452","1570662","0.0-240.0-1.0","null","<p></p>","null","","","","","","","","","","","","","","","","","","",""
"","do_trial","453","1575538","0.0-241.0-0.0","354.2000000476837","","","","50","0,0,1","4","countryside","184","probe-132","0.3101505546030161","0.109551019476351","0.5771367834765215","0","","","","","","","",""
"","html-keyboard-response","454","1576543","0.0-241.0-1.0","null","<p></p>","null","","","","","","","","","","","","","","","","","","",""
"","do_trial","455","1581614","0.0-242.0-0.0","548.6999999284744","","","","50","0,0,1","4","countryside","185","probe-31","0.24129122095382696","0.09605384879082189","0.7183543204364452","0","","","","","","","",""
"","html-keyboard-response","456","1582624","0.0-242.0-1.0","null","<p></p>","null","","","","","","","","","","","","","","","","","","",""
"","do_trial","457","1588102","0.0-243.0-0.0","943.2999999523163","","","","49","0,0,1","4","countryside","186","probe-144","0.15834569158631775","0.11487134365351931","0.6349714237087256","0","","","","","","","",""
"","html-keyboard-response","458","1589113","0.0-243.0-1.0","null","<p></p>","null","","","","","","","","","","","","","","","","","","",""
"","do_trial","459","1594426","0.0-244.0-0.0","783.6000000238419","","","","49","0,0,0","4","countryside","187","probe-206","0.2369296542314261","0.1278687398370407","0.5548414892017034","0","","","","","","","",""
"","html-keyboard-response","460","1595435","0.0-244.0-1.0","null","<p></p>","null","","","","","","","","","","","","","","","","","","",""
"","do_trial","461","1600690","0.0-245.0-0.0","728.5","","","","51","0,1,0","4","countryside","188","probe-178","0.21909050746882688","0.08459794319337174","0.6838888212487473","0","","","","","","","",""
"","html-keyboard-response","462","1601692","0.0-245.0-1.0","null","<p></p>","null","","","","","","","","","","","","","","","","","","",""
"","do_trial","463","1606700","0.0-246.0-0.0","476.60000002384186","","","","49","1,0,1","4","countryside","189","probe-82","0.26990124082533784","0.10077595332807397","0.5802842369701285","1","","","","","","","",""
"","html-keyboard-response","464","1607709","0.0-246.0-1.0","null","<p></p>","null","","","","","","","","","","","","","","","","","","",""
"","do_bye","465","1609217","0.0-247.0-0.0","null","","","","null","","","","","","","","","","","","","","","","",""
"","do_travel","466","1615226","0.0-248.0-0.0","null","","","","null","","","","","","","","","","","","","","","","",""
"","do_welcome","467","1616733","0.0-248.0-1.0","null","","","","null","","","","","","","","","","","","","","","","",""
"","do_trial","468","1622013","0.0-249.0-0.0","760.2999999523163","","","","49","0,1,1","5","city","190","probe-57","0.34134827087878966","0.061301759542220176","1","0","","","","","","","",""
"","html-keyboard-response","469","1623019","0.0-249.0-1.0","null","<p></p>","null","","","","","","","","","","","","","","","","","","",""
"","do_trial","470","1627969","0.0-250.0-0.0","417.7000000476837","","","","50","0,0,1","5","city","191","probe-08","0.4337595491703574","0.1403873143726622","1","0","","","","","","","",""
"","html-keyboard-response","471","1628974","0.0-250.0-1.0","null","<p></p>","null","","","","","","","","","","","","","","","","","","",""
"","do_trial","472","1633774","0.0-251.0-0.0","269.10000002384186","","","","51","0,0,1","5","city","192","probe-21","0.34979593618978283","0.11505762659037182","0.9042161839564574","1","","","","","","","",""
"","html-keyboard-response","473","1634781","0.0-251.0-1.0","null","<p></p>","null","","","","","","","","","","","","","","","","","","",""
"","do_trial","474","1639655","0.0-252.0-0.0","340.2999999523163","","","","49","1,0,1","5","city","193","probe-157","0.4335813682611114","0.07441213311519258","0.706820448499409","1","","","","","","","",""
"","html-keyboard-response","475","1640662","0.0-252.0-1.0","null","<p></p>","null","","","","","","","","","","","","","","","","","","",""
"","do_trial","476","1646412","0.0-253.0-0.0","1216.8000000715256","","","","50","0,0,1","5","city","194","probe-205","0.44586020888396305","0.0552614812515556","0.5424470905443846","0","","","","","","","",""
"","html-keyboard-response","477","1647420","0.0-253.0-1.0","null","<p></p>","null","","","","","","","","","","","","","","","","","","",""
"","do_trial","478","1652457","0.0-254.0-0.0","502.10000002384186","","","","51","1,0,0","5","city","195","probe-99","0.43358199706384504","0.07643816533267087","0.46439669770403585","0","","","","","","","",""
"","html-keyboard-response","479","1653465","0.0-254.0-1.0","null","<p></p>","null","","","","","","","","","","","","","","","","","","",""
"","do_trial","480","1658033","0.0-255.0-0.0","46.59999990463257","","","","49","1,0,1","5","city","196","probe-17","0.41981971567340537","0.10867523239100767","0.6375557796958794","1","","","","","","","",""
"","html-keyboard-response","481","1659037","0.0-255.0-1.0","null","<p></p>","null","","","","","","","","","","","","","","","","","","",""
"","do_trial","482","1664386","0.0-256.0-0.0","823.3000000715256","","","","51","1,0,1","5","city","197","probe-192","0.2926020540390057","0.050295840265274915","0.5730264405113027","1","","","","","","","",""
"","html-keyboard-response","483","1665394","0.0-256.0-1.0","null","<p></p>","null","","","","","","","","","","","","","","","","","","",""
"","do_trial","484","1670232","0.0-257.0-0.0","313.8000000715256","","","","49","0,0,0","5","city","198","probe-163","0.3658128812449508","0.07200706137855414","0.5087807354746191","0","","","","","","","",""
"","html-keyboard-response","485","1671241","0.0-257.0-1.0","null","<p></p>","null","","","","","","","","","","","","","","","","","","",""
"","do_trial","486","1676476","0.0-258.0-0.0","715.4000000953674","","","","51","1,0,0","5","city","199","probe-184","0.2121344226448154","0.10116488356829374","0.608658965692197","0","","","","","","","",""
"","html-keyboard-response","487","1677479","0.0-258.0-1.0","null","<p></p>","null","","","","","","","","","","","","","","","","","","",""
"","do_trial","488","1682282","0.0-259.0-0.0","280","","","","49","0,0,1","5","city","200","probe-160","0.17275277373139417","0.19583086645483933","0.5658344594364794","0","","","","","","","",""
"","html-keyboard-response","489","1683286","0.0-259.0-1.0","null","<p></p>","null","","","","","","","","","","","","","","","","","","",""
"","do_trial","490","1688238","0.0-260.0-0.0","423","","","","51","0,0,1","5","city","201","probe-91","0.09326189210172366","0.16500503187678198","0.4639144682696097","1","","","","","","","",""
"","html-keyboard-response","491","1689253","0.0-260.0-1.0","null","<p></p>","null","","","","","","","","","","","","","","","","","","",""
"","do_trial","492","1694140","0.0-261.0-0.0","356.8000000715256","","","","50","0,0,0","5","city","202","probe-215","0.26726229836674437","0.3907505327786636","0.2356691693086036","0","","","","","","","",""
"","html-keyboard-response","493","1695149","0.0-261.0-1.0","null","<p></p>","null","","","","","","","","","","","","","","","","","","",""
"","do_trial","494","1700050","0.0-262.0-0.0","366.5","","","","50","1,1,0","5","city","203","probe-43","0.3703832883752673","0.36389613090799466","0.12646029952831822","1","","","","","","","",""
"","html-keyboard-response","495","1701055","0.0-262.0-1.0","null","<p></p>","null","","","","","","","","","","","","","","","","","","",""
"","do_trial","496","1705916","0.0-263.0-0.0","332.10000002384186","","","","51","0,0,0","5","city","204","probe-74","0.2234553185048055","0.5077617944584663","0.0699788554011934","0","","","","","","","",""
"","html-keyboard-response","497","1706919","0.0-263.0-1.0","null","<p></p>","null","","","","","","","","","","","","","","","","","","",""
"","do_trial","498","1711978","0.0-264.0-0.0","526.3999999761581","","","","51","0,1,1","5","city","205","probe-211","0.3578250956912165","0.5410694112811392","0.06858487626142315","1","","","","","","","",""
"","html-keyboard-response","499","1712992","0.0-264.0-1.0","null","<p></p>","null","","","","","","","","","","","","","","","","","","",""
"","do_trial","500","1718675","0.0-265.0-0.0","1149.8000000715256","","","","51","0,1,0","5","city","206","probe-225","0.32488459656377866","0.6027645803849734","0.10453842162643394","0","","","","","","","",""
"","html-keyboard-response","501","1719680","0.0-265.0-1.0","null","<p></p>","null","","","","","","","","","","","","","","","","","","",""
"","do_trial","502","1724897","0.0-266.0-0.0","688.6000000238419","","","","51","0,0,0","5","city","207","probe-203","0.3135877998177457","0.5398575620291536","0.06152129777791506","0","","","","","","","",""
"","html-keyboard-response","503","1725903","0.0-266.0-1.0","null","<p></p>","null","","","","","","","","","","","","","","","","","","",""
"","do_trial","504","1731237","0.0-267.0-0.0","807.3000000715256","","","","50","0,1,0","5","city","208","probe-138","0.2142694562023788","0.5656199678821545","0.06890517274230218","1","","","","","","","",""
"","html-keyboard-response","505","1732245","0.0-267.0-1.0","null","<p></p>","null","","","","","","","","","","","","","","","","","","",""
"","do_trial","506","1737243","0.0-268.0-0.0","478.3000000715256","","","","50","0,1,1","5","city","209","probe-182","0.2358617426758563","0.5370116197277853","0.07488462166214731","1","","","","","","","",""
"","html-keyboard-response","507","1738251","0.0-268.0-1.0","null","<p></p>","null","","","","","","","","","","","","","","","","","","",""
"","do_trial","508","1743399","0.0-269.0-0.0","619.6000000238419","","","","51","1,1,0","5","city","210","probe-223","0.20297984755181384","0.5931940356210594","0.09393403310905861","0","","","","","","","",""
"","html-keyboard-response","509","1744403","0.0-269.0-1.0","null","<p></p>","null","","","","","","","","","","","","","","","","","","",""
"","do_trial","510","1749262","0.0-270.0-0.0","331.39999997615814","","","","50","0,0,0","5","city","211","probe-196","0.22200863856153155","0.5769475092866846","0.09152638840648784","0","","","","","","","",""
"","html-keyboard-response","511","1750279","0.0-270.0-1.0","null","<p></p>","null","","","","","","","","","","","","","","","","","","",""
"","do_trial","512","1756220","0.0-271.0-0.0","1413.5","","","","51","0,0,0","5","city","212","probe-146","0.3060958549587501","0.6161111191206508","0.1656737442559792","0","","","","","","","",""
"","html-keyboard-response","513","1757227","0.0-271.0-1.0","null","<p></p>","null","","","","","","","","","","","","","","","","","","",""
"","do_trial","514","1762026","0.0-272.0-0.0","265.89999997615814","","","","49","0,0,0","5","city","213","probe-115","0.3980144821817207","0.7174489906621893","0.15209077964033685","0","","","","","","","",""
"","html-keyboard-response","515","1763033","0.0-272.0-1.0","null","<p></p>","null","","","","","","","","","","","","","","","","","","",""
"","do_trial","516","1768607","0.0-273.0-0.0","1042.1000000238419","","","","49","1,0,1","5","city","214","probe-140","0.3688741195951791","0.6502045549923632","0.18541013870827494","1","","","","","","","",""
"","html-keyboard-response","517","1769612","0.0-273.0-1.0","null","<p></p>","null","","","","","","","","","","","","","","","","","","",""
"","do_trial","518","1774999","0.0-274.0-0.0","853.8000000715256","","","","49","0,1,1","5","city","215","probe-183","0.3371283422192657","0.6964288007049134","0.27425074326558246","0","","","","","","","",""
"","html-keyboard-response","519","1776005","0.0-274.0-1.0","null","<p></p>","null","","","","","","","","","","","","","","","","","","",""
"","do_trial","520","1782232","0.0-275.0-0.0","null","","","","null","0,1,1","5","city","216","probe-155","0.3353834585677145","0.6061505530025195","0.18871167620242899","","","","","","","","",""
"","html-keyboard-response","521","1783247","0.0-275.0-1.0","null","<p></p>","null","","","","","","","","","","","","","","","","","","",""
"","do_trial","522","1788151","0.0-276.0-0.0","380","","","","49","0,1,0","5","city","217","probe-10","0.3125909831196882","0.6384612413228384","0.19211424712727765","0","","","","","","","",""
"","html-keyboard-response","523","1789164","0.0-276.0-1.0","null","<p></p>","null","","","","","","","","","","","","","","","","","","",""
"","do_trial","524","1794431","0.0-277.0-0.0","739","","","","49","0,1,0","5","city","218","probe-24","0.43520251848905295","0.5690208735900092","0.1599179750597224","0","","","","","","","",""
"","html-keyboard-response","525","1795445","0.0-277.0-1.0","null","<p></p>","null","","","","","","","","","","","","","","","","","","",""
"","do_trial","526","1801153","0.0-278.0-0.0","1180.8000000715256","","","","49","0,1,0","5","city","219","probe-11","0.47425864202730394","0.5463334540478694","0.12072062568886764","0","","","","","","","",""
"","html-keyboard-response","527","1802157","0.0-278.0-1.0","null","<p></p>","null","","","","","","","","","","","","","","","","","","",""
"","do_trial","528","1809342","0.0-279.0-0.0","2660.100000023842","","","","49","0,1,0","5","city","220","probe-117","0.4137606456087367","0.5753466613293263","0.08101212986394937","0","","","","","","","",""
"","html-keyboard-response","529","1810357","0.0-279.0-1.0","null","<p></p>","null","","","","","","","","","","","","","","","","","","",""
