"success","trial_type","trial_index","time_elapsed","internal_node_id","interactions","blur_events","focus_events","fullscreenenter_events","fullscreenexit_events","rt","stimulus","key_press","subject_id","participant_id","age","gender","prompt","response","choice_outcomes","context_n","context_img_id","trial_n","probe_img_id","pR_red","pR_white","pR_black","outcome","contextArray_ind","validImageProbes","invalidImageProbes","pRew_Red","pRew_White","pRew_Black","availableForMemProbe","choice_blocks"
"true","fullscreen","0","3066","0.0-0.0","""event"",""trial"",""time""
""fullscreenenter"",""0"",""2082""
","
","
","""event"",""trial"",""time""
""fullscreenenter"",""0"",""2082""
","
","","","","","","","","","","","","","","","","","","","","","","","","","",""
"","pavlovia","1","3073","0.0-1.0","""event"",""trial"",""time""
""fullscreenenter"",""0"",""2082""
","
","
","""event"",""trial"",""time""
""fullscreenenter"",""0"",""2082""
","
","","","","","","","","","","","","","","","","","","","","","","","","","",""
"","instruc1","2","48359","0.0-2.0","""event"",""trial"",""time""
""fullscreenenter"",""0"",""2082""
","
","
","""event"",""trial"",""time""
""fullscreenenter"",""0"",""2082""
","
","null","run_exp/static/audio/clip_1_welcome.m4a","null","284","928","15","Male","<div class='center'><p>Welcome! This is the first part of the study. It will last ~30 minutes. In part 1 and part 2 of the study, you are the head captain of a pirate ship traveling around the world to different islands. You will play a few different games throughout these two parts. Here is an overview of them:</p><br><p>Part 1 (today)</p><p>1. Instructions, practice game, and quiz</p><p>2. Pick a pirate game on 6 different islands</p><br><p>Part 2 (tomorrow)</p><p>3. Pick a pirate game and memory game</p><p>4. Where did you see this ship? </p></div>","","","","","","","","","","","","","","","","","",""
"","html-keyboard-response","3","48799","0.0-3.0","""event"",""trial"",""time""
""fullscreenenter"",""0"",""2082""
","
","
","""event"",""trial"",""time""
""fullscreenenter"",""0"",""2082""
","
","435","<div class='center'><p>Welcome! This is the first part of the study. It will last ~30 minutes. In part 1 and part 2 of the study, you are the head captain of a pirate ship traveling around the world to different islands. You will play a few different games throughout these two parts. Here is an overview of them:</p><br><p>Part 1 (today)</p><p>1. Instructions, practice game, and quiz</p><p>2. Pick a pirate game on 6 different islands</p><br><p>Part 2 (tomorrow)</p><p>3. Pick a pirate game and memory game</p><p>4. Where did you see this ship? </p><p><b>[Press the space bar to continue]</b></p></div>","32","","","","","","","","","","","","","","","","","","","","","","",""
"","instruc2","4","54305","0.0-4.0","""event"",""trial"",""time""
""fullscreenenter"",""0"",""2082""
","
","
","""event"",""trial"",""time""
""fullscreenenter"",""0"",""2082""
","
","null","run_exp/static/audio/clip_2_different_places.m4a","null","","","","","<div class='center'><p>Today, you’ll visit these 6 islands on your journey. You'll be able to see these islands from your ship.</p><p><img src='run_exp/static/images/contexts/all_contexts.png' height='500'></p></div>","","","","","","","","","","","","","","","","","",""
"","html-keyboard-response","5","54491","0.0-5.0","""event"",""trial"",""time""
""fullscreenenter"",""0"",""2082""
","
","
","""event"",""trial"",""time""
""fullscreenenter"",""0"",""2082""
","
","182.89999999850988","<div class='center'><p>Today, you’ll visit these 6 islands on your journey. You'll be able to see these islands from your ship.</p><p><img src='run_exp/static/images/contexts/all_contexts.png' height='500'></p><p><b>[Press the space bar to continue]</b></p></div>","32","","","","","","","","","","","","","","","","","","","","","","",""
"","instruc3","6","64435","0.0-6.0","""event"",""trial"",""time""
""fullscreenenter"",""0"",""2082""
","
","
","""event"",""trial"",""time""
""fullscreenenter"",""0"",""2082""
","
","null","run_exp/static/audio/clip_3_goal_of_game_1.m4a","null","","","","","<div class='center'><p> The pirates on your ship will rob other ships as they leave the island.</p> These ships have just sold their goods to the islanders, so they will be filled with lots and lots of gold.</p><p><img src='run_exp/static/images/tutorial/ship_center.png' height='400'></p></div>","","","","","","","","","","","","","","","","","",""
"","html-keyboard-response","7","64789","0.0-7.0","""event"",""trial"",""time""
""fullscreenenter"",""0"",""2082""
","
","
","""event"",""trial"",""time""
""fullscreenenter"",""0"",""2082""
","
","351.90000000037253","<div class='center'><p> The pirates on your ship will rob other ships as they leave the island.</p> These ships have just sold their goods to the islanders, so they will be filled with lots and lots of gold.</p><p><img src='run_exp/static/images/tutorial/ship_center.png' height='400'></p><p><b>[Press the space bar to continue]</b></p></div>","32","","","","","","","","","","","","","","","","","","","","","","",""
"","instruc4","8","92964","0.0-8.0","""event"",""trial"",""time""
""fullscreenenter"",""0"",""2082""
","
","
","""event"",""trial"",""time""
""fullscreenenter"",""0"",""2082""
","
","null","run_exp/static/audio/clip_4_goal_of_game_2.m4a","null","","","","","<div class='center'><p>As the head captain, you do not have to rob any ships yourself. Another pirate will be doing the robbing for you. First, you will choose a pirate to rob the next ship.</p><p><img src='run_exp/static/images/tutorial/pirates_all_crop.png' height='200'></p><p>Then, you'll see if the pirate successfully robbed the ship of their gold. If they were successful, then you'll get a stack of gold coins like this:</p><p><img src='run_exp/static/images/tutorial/reward.png' height='150'></p><p> If they were <b>not</b> successful, then you'll get no gold coins, and you'll see a big red x like this: </p><p><img src='run_exp/static/images/tutorial/reward_no.png' height='150'></p><p> How much bonus money you make is based on how many gold coins you collect.</p><div>","","","","","","","","","","","","","","","","","",""
"","html-keyboard-response","9","92978","0.0-9.0","""event"",""trial"",""time""
""fullscreenenter"",""0"",""2082""
","
","
","""event"",""trial"",""time""
""fullscreenenter"",""0"",""2082""
","
","8.800000000745058","<div class='center'><p>As the head captain, you do not have to rob any ships yourself. Another pirate will be doing the robbing for you. First, you will choose a pirate to rob the next ship.</p><p><img src='run_exp/static/images/tutorial/pirates_all_crop.png' height='200'></p><p>Then, you'll see if the pirate successfully robbed the ship of their gold. If they were successful, then you'll get a stack of gold coins like this:</p><p><img src='run_exp/static/images/tutorial/reward.png' height='150'></p><p> If they were <b>not</b> successful, then you'll get no gold coins, and you'll see a big red x like this: </p><p><img src='run_exp/static/images/tutorial/reward_no.png' height='150'></p><p> How much bonus money you make is based on how many gold coins you collect.</p<p><b>[Press the space bar to continue]</b></p></div>","32","","","","","","","","","","","","","","","","","","","","","","",""
"","instruc5","10","108301","0.0-10.0","""event"",""trial"",""time""
""fullscreenenter"",""0"",""2082""
","
","
","""event"",""trial"",""time""
""fullscreenenter"",""0"",""2082""
","
","15316.199999999255","run_exp/static/audio/clip_5_probabilistic.m4a","49","","","","","<div class='center'><p>Even the most skilled pirate can not rob EVERY ship.</p><p> Some ships will have very strong protections against pirate attacks.</p><p> Blue beard, here, is very, very good at robbing ships, but he won't be successful every time he tries to rob one.</p><p> You can press the <b>‘1’</b> key on the keyboard to choose him.</p><p> Try choosing him 10 times to see how often he succeeds at robbing a ship. </p><p><img src='run_exp/static/images/tutorial/blue.png' height='500'></p></div>","","","","","","","","","","","","","","","","","",""
"","html-keyboard-response","11","109806","0.0-11.0","""event"",""trial"",""time""
""fullscreenenter"",""0"",""2082""
","
","
","""event"",""trial"",""time""
""fullscreenenter"",""0"",""2082""
","
","null","<div class='center'><p><img src='run_exp/static/images/tutorial/blue_win.png' height='500'></p></div>","null","","","","","","","","","","","","","","","","","","","","","","",""
"","html-keyboard-response","12","110045","0.0-12.0","""event"",""trial"",""time""
""fullscreenenter"",""0"",""2082""
","
","
","""event"",""trial"",""time""
""fullscreenenter"",""0"",""2082""
","
","236.5","<div class='center'><img src='run_exp/static/images/tutorial/blue.png' height='500'></p></div>","49","","","","","","","","","","","","","","","","","","","","","","",""
"","html-keyboard-response","13","111547","0.0-13.0","""event"",""trial"",""time""
""fullscreenenter"",""0"",""2082""
","
","
","""event"",""trial"",""time""
""fullscreenenter"",""0"",""2082""
","
","null","<div class='center'><p><img src='run_exp/static/images/tutorial/blue_win.png' height='500'></p></div>","null","","","","","","","","","","","","","","","","","","","","","","",""
"","html-keyboard-response","14","111694","0.0-14.0","""event"",""trial"",""time""
""fullscreenenter"",""0"",""2082""
","
","
","""event"",""trial"",""time""
""fullscreenenter"",""0"",""2082""
","
","145.19999999925494","<div class='center'><img src='run_exp/static/images/tutorial/blue.png' height='500'></p></div>","49","","","","","","","","","","","","","","","","","","","","","","",""
"","html-keyboard-response","15","113197","0.0-15.0","""event"",""trial"",""time""
""fullscreenenter"",""0"",""2082""
","
","
","""event"",""trial"",""time""
""fullscreenenter"",""0"",""2082""
","
","null","<div class='center'><p><img src='run_exp/static/images/tutorial/blue_win.png' height='500'></p></div>","null","","","","","","","","","","","","","","","","","","","","","","",""
"","html-keyboard-response","16","113306","0.0-16.0","""event"",""trial"",""time""
""fullscreenenter"",""0"",""2082""
","
","
","""event"",""trial"",""time""
""fullscreenenter"",""0"",""2082""
","
","105.70000000111759","<div class='center'><img src='run_exp/static/images/tutorial/blue.png' height='500'></p></div>","49","","","","","","","","","","","","","","","","","","","","","","",""
"","html-keyboard-response","17","114808","0.0-17.0","""event"",""trial"",""time""
""fullscreenenter"",""0"",""2082""
","
","
","""event"",""trial"",""time""
""fullscreenenter"",""0"",""2082""
","
","null","<div class='center'><p><img src='run_exp/static/images/tutorial/blue_no_win.png' height='500'></p></div>","null","","","","","","","","","","","","","","","","","","","","","","",""
"","html-keyboard-response","18","114887","0.0-18.0","""event"",""trial"",""time""
""fullscreenenter"",""0"",""2082""
","
","
","""event"",""trial"",""time""
""fullscreenenter"",""0"",""2082""
","
","77.19999999925494","<div class='center'><img src='run_exp/static/images/tutorial/blue.png' height='500'></p></div>","49","","","","","","","","","","","","","","","","","","","","","","",""
"","html-keyboard-response","19","116390","0.0-19.0","""event"",""trial"",""time""
""fullscreenenter"",""0"",""2082""
","
","
","""event"",""trial"",""time""
""fullscreenenter"",""0"",""2082""
","
","null","<div class='center'><p><img src='run_exp/static/images/tutorial/blue_win.png' height='500'></p></div>","null","","","","","","","","","","","","","","","","","","","","","","",""
"","html-keyboard-response","20","116402","0.0-20.0","""event"",""trial"",""time""
""fullscreenenter"",""0"",""2082""
","
","
","""event"",""trial"",""time""
""fullscreenenter"",""0"",""2082""
","
","10.400000000372529","<div class='center'><img src='run_exp/static/images/tutorial/blue.png' height='500'></p></div>","49","","","","","","","","","","","","","","","","","","","","","","",""
"","html-keyboard-response","21","117904","0.0-21.0","""event"",""trial"",""time""
""fullscreenenter"",""0"",""2082""
","
","
","""event"",""trial"",""time""
""fullscreenenter"",""0"",""2082""
","
","null","<div class='center'><p><img src='run_exp/static/images/tutorial/blue_win.png' height='500'></p></div>","null","","","","","","","","","","","","","","","","","","","","","","",""
"","html-keyboard-response","22","118014","0.0-22.0","""event"",""trial"",""time""
""fullscreenenter"",""0"",""2082""
","
","
","""event"",""trial"",""time""
""fullscreenenter"",""0"",""2082""
","
","107.09999999962747","<div class='center'><img src='run_exp/static/images/tutorial/blue.png' height='500'></p></div>","49","","","","","","","","","","","","","","","","","","","","","","",""
"","html-keyboard-response","23","119516","0.0-23.0","""event"",""trial"",""time""
""fullscreenenter"",""0"",""2082""
","
","
","""event"",""trial"",""time""
""fullscreenenter"",""0"",""2082""
","
","null","<div class='center'><p><img src='run_exp/static/images/tutorial/blue_win.png' height='500'></p></div>","null","","","","","","","","","","","","","","","","","","","","","","",""
"","html-keyboard-response","24","119688","0.0-24.0","""event"",""trial"",""time""
""fullscreenenter"",""0"",""2082""
","
","
","""event"",""trial"",""time""
""fullscreenenter"",""0"",""2082""
","
","168.59999999962747","<div class='center'><img src='run_exp/static/images/tutorial/blue.png' height='500'></p></div>","49","","","","","","","","","","","","","","","","","","","","","","",""
"","html-keyboard-response","25","121190","0.0-25.0","""event"",""trial"",""time""
""fullscreenenter"",""0"",""2082""
","
","
","""event"",""trial"",""time""
""fullscreenenter"",""0"",""2082""
","
","null","<div class='center'><p><img src='run_exp/static/images/tutorial/blue_no_win.png' height='500'></p></div>","null","","","","","","","","","","","","","","","","","","","","","","",""
"","html-keyboard-response","26","121304","0.0-26.0","""event"",""trial"",""time""
""fullscreenenter"",""0"",""2082""
","
","
","""event"",""trial"",""time""
""fullscreenenter"",""0"",""2082""
","
","111.70000000111759","<div class='center'><img src='run_exp/static/images/tutorial/blue.png' height='500'></p></div>","49","","","","","","","","","","","","","","","","","","","","","","",""
"","html-keyboard-response","27","122807","0.0-27.0","""event"",""trial"",""time""
""fullscreenenter"",""0"",""2082""
","
","
","""event"",""trial"",""time""
""fullscreenenter"",""0"",""2082""
","
","null","<div class='center'><p><img src='run_exp/static/images/tutorial/blue_win.png' height='500'></p></div>","null","","","","","","","","","","","","","","","","","","","","","","",""
"","html-keyboard-response","28","122992","0.0-28.0","""event"",""trial"",""time""
""fullscreenenter"",""0"",""2082""
","
","
","""event"",""trial"",""time""
""fullscreenenter"",""0"",""2082""
","
","182.2000000011176","<div class='center'><img src='run_exp/static/images/tutorial/blue.png' height='500'></p></div>","49","","","","","","","","","","","","","","","","","","","","","","",""
"","html-keyboard-response","29","124495","0.0-29.0","""event"",""trial"",""time""
""fullscreenenter"",""0"",""2082""
","
","
","""event"",""trial"",""time""
""fullscreenenter"",""0"",""2082""
","
","null","<div class='center'><p><img src='run_exp/static/images/tutorial/blue_win.png' height='500'></p></div>","null","","","","","","","","","","","","","","","","","","","","","","",""
"","instruc6","30","130086","0.0-30.0","""event"",""trial"",""time""
""fullscreenenter"",""0"",""2082""
","
","
","""event"",""trial"",""time""
""fullscreenenter"",""0"",""2082""
","
","null","run_exp/static/audio/clip_6_blue_beard_outcome.m4a","null","","","","","<div class='center'><p> See, he succeeded in robbing the ships most of the time but not every time. </p></div>","","","","","","","","","","","","","","","","","",""
"","html-keyboard-response","31","130505","0.0-31.0","""event"",""trial"",""time""
""fullscreenenter"",""0"",""2082""
","
","
","""event"",""trial"",""time""
""fullscreenenter"",""0"",""2082""
","
","414.7000000011176","<div class='center'><p> See, he succeeded in robbing the ships most of the time but not every time. </p><p><b>[Press the space bar to continue]</b></p></div>","32","","","","","","","","","","","","","","","","","","","","","","",""
"","audio-keyboard-response","32","132729","0.0-32.0","""event"",""trial"",""time""
""fullscreenenter"",""0"",""2082""
","
","
","""event"",""trial"",""time""
""fullscreenenter"",""0"",""2082""
","
","2215.60000000149","run_exp/static/audio/clip_7_pick_pirate.m4a","50","","","","","","","","","","","","","","","","","","","","","","",""
"","audio-keyboard-response","33","134478","0.0-33.0-0.0","""event"",""trial"",""time""
""fullscreenenter"",""0"",""2082""
","
","
","""event"",""trial"",""time""
""fullscreenenter"",""0"",""2082""
","
","1742.7000000011176","run_exp/static/audio/clip_8_chosen_pirate_win.m4a","32","","","","","","","","","","","","","","","","","","","","","","",""
"","audio-keyboard-response","34","135006","0.0-33.0-1.0","""event"",""trial"",""time""
""fullscreenenter"",""0"",""2082""
","
","
","""event"",""trial"",""time""
""fullscreenenter"",""0"",""2082""
","
","524.9000000003725","run_exp/static/audio/clip_9_pick_a_pirate_again.m4a","50","","","","","","","","","","","","","","","","","","","","","","",""
"","audio-keyboard-response","35","135786","0.0-34.0-0.0","""event"",""trial"",""time""
""fullscreenenter"",""0"",""2082""
","
","
","""event"",""trial"",""time""
""fullscreenenter"",""0"",""2082""
","
","774.0999999996275","run_exp/static/audio/clip_10_chosen_pirate_loss.m4a","32","","","","","","","","","","","","","","","","","","","","","","",""
"","instruc9","36","141516","0.0-35.0-0.0","""event"",""trial"",""time""
""fullscreenenter"",""0"",""2082""
","
","
","""event"",""trial"",""time""
""fullscreenenter"",""0"",""2082""
","
","null","run_exp/static/audio/clip_11_time_out.m4a","null","","","","","<div class='center'><p>If you don’t make your choice fast enough, you’ll have to wait a few seconds before you can make another one. </p><p><img src='run_exp/static/images/miscellaneous/hurry_up.png' height='500'></p></div>","","","","","","","","","","","","","","","","","",""
"","html-keyboard-response","37","141796","0.0-35.0-1.0","""event"",""trial"",""time""
""fullscreenenter"",""0"",""2082""
","
","
","""event"",""trial"",""time""
""fullscreenenter"",""0"",""2082""
","
","278","<div class='center'><p>If you don’t make your choice fast enough, you’ll have to wait a few seconds before you can make another one. </p><p><img src='run_exp/static/images/miscellaneous/hurry_up.png' height='500'></p><p><b>[Press the space bar to continue]</b></p></div>","32","","","","","","","","","","","","","","","","","","","","","","",""
"","instruc10","38","181196","0.0-35.0-2.0","""event"",""trial"",""time""
""fullscreenenter"",""0"",""2082""
","
","
","""event"",""trial"",""time""
""fullscreenenter"",""0"",""2082""
","
","null","run_exp/static/audio/clip_12_probe.m4a","null","","","","","<div class='center'><p>Once you've chosen a pirate, you’ll be shown the ship they are robbing. You will never rob the same ship twice. Ships can be told apart from one another by the image on them. These are the goods that they sell. See, this ship has a travel mug on it. </p><p> You’ll have to remember which island you saw each ship on. You will win more gold coins and hence more bonus money if you remember correctly! To help you remember, you can imagine a story. For example, here, you could imagine a mug full of water in the desert. Or, as another example, if on the forest island, your pirate robbed a ship with an apple on it, you could imagine an apple falling from a tree in the forest. </p><p><img src='run_exp/static/images/tutorial/example_probe.png' height='500'></p></div>","","","","","","","","","","","","","","","","","",""
"","html-keyboard-response","39","182241","0.0-35.0-3.0","""event"",""trial"",""time""
""fullscreenenter"",""0"",""2082""
","
","
","""event"",""trial"",""time""
""fullscreenenter"",""0"",""2082""
","
","1041.0999999996275","<div class='center'><p>Once you've chosen a pirate, you’ll be shown the ship they are robbing. You will never rob the same ship twice. Ships can be told apart from one another by the image on them. These are the goods that they sell. See, this ship has a travel mug on it. </p><p> You’ll have to remember which island you saw each ship on. You will win more gold coins and hence more bonus money if you remember correctly! To help you remember, you can imagine a story. For example, here, you could imagine a mug full of water in the desert. Or, as another example, if on the forest island, your pirate robbed a ship with an apple on it, you could imagine an apple falling from a tree in the forest. </p><p><img src='run_exp/static/images/tutorial/example_probe.png' height='500'></p><p><b>[Press the space bar to continue]</b></p></div>","32","","","","","","","","","","","","","","","","","","","","","","",""
"","instruc11","40","198852","0.0-35.0-4.0","""event"",""trial"",""time""
""fullscreenenter"",""0"",""2082""
","
","
","""event"",""trial"",""time""
""fullscreenenter"",""0"",""2082""
","
","null","run_exp/static/audio/clip_13_changepoint.m4a","null","","","","","<div class='center'><p>How successful a pirate is at robbing ships will depend on the island you’re on.</p><p> A pirate may have visited this island many times before and gained a lot of practice robbing ships there.</p><p>So, they’re more likely to be successful than a pirate who has never visited the island before.</p></div>","","","","","","","","","","","","","","","","","",""
"","html-keyboard-response","41","199418","0.0-35.0-5.0","""event"",""trial"",""time""
""fullscreenenter"",""0"",""2082""
","
","
","""event"",""trial"",""time""
""fullscreenenter"",""0"",""2082""
","
","564","<div class='center'><p>How successful a pirate is at robbing ships will depend on the island you’re on.</p><p> A pirate may have visited this island many times before and gained a lot of practice robbing ships there.</p><p>So, they’re more likely to be successful than a pirate who has never visited the island before.</p><p><b>[Press the space bar to continue]</b></p></div>","32","","","","","","","","","","","","","","","","","","","","","","",""
"","instruc12","42","240762","0.0-35.0-6.0","""event"",""trial"",""time""
""fullscreenenter"",""0"",""2082""
","
","
","""event"",""trial"",""time""
""fullscreenenter"",""0"",""2082""
","
","null","run_exp/static/audio/clip_14_drift.m4a","null","","","","","<div class='center'><p>How successful a pirate is at robbing ships can also change over the time spent on the island. </p><p> Ships may hear from islanders about the pirates coming and will improve their protections against the attack. This may make it harder to rob them.</p><p> Ships may also become lazy and weaken the strength of their protections. This may make it easier to rob them.</p><br><p>Things are always changing on the high seas! So, try your best to pay attention!</p><p><img src='run_exp/static/images/tutorial/contingency.png' height='500'></p></div>","","","","","","","","","","","","","","","","","",""
"","html-keyboard-response","43","241784","0.0-35.0-7.0","""event"",""trial"",""time""
""fullscreenenter"",""0"",""2082""
","
","
","""event"",""trial"",""time""
""fullscreenenter"",""0"",""2082""
","
","1017.5999999996275","<div class='center'><p>How successful a pirate is at robbing ships can also change over the time spent on the island. </p><p> Ships may hear from islanders about the pirates coming and will improve their protections against the attack. This may make it harder to rob them.</p><p> Ships may also become lazy and weaken the strength of their protections. This may make it easier to rob them.</p><br><p>Things are always changing on the high seas! So, try your best to pay attention!</p><p><img src='run_exp/static/images/tutorial/contingency.png' height='500'></p><p><b>[Press the space bar to continue]</b></p></div>","32","","","","","","","","","","","","","","","","","","","","","","",""
"","instruc13","44","277285","0.0-35.0-8.0","""event"",""trial"",""time""
""fullscreenenter"",""0"",""2082""
","
","
","""event"",""trial"",""time""
""fullscreenenter"",""0"",""2082""
","
","null","run_exp/static/audio/clip_15_summary.m4a","null","","","","","<div class='center'><p>Let's go over the instructions quickly again. You have two important things to do: </p><b><p> 1. Pick the pirate who is the best at robbing ships on the current island. </p></b><b><p> 2. Remember on which island a ship was robbed.</p> </b><p>The amount of bonus money you can win depends on both.</p><p><br><p>Let’s try a practice game. The game will start by showing you the pirates. First, pick a pirate using the <b> 1, 2, 3 </b> keys on your keyboard. When you are shown a ship, try to remember which island you’re on by making up a story.</p><p>This is just a practice game, so you’re not playing for money. </p><p> Good luck! This game will be very difficult but try your best!</p></div>","","","","","","","","","","","","","","","","","",""
"","html-keyboard-response","45","279259","0.0-35.0-9.0","""event"",""trial"",""time""
""fullscreenenter"",""0"",""2082""
","
","
","""event"",""trial"",""time""
""fullscreenenter"",""0"",""2082""
","
","1971.0999999996275","<div class='center'><p>Let's go over the instructions quickly again. You have two important things to do: </p><b><p> 1. Pick the pirate who is the best at robbing ships on the current island. </p></b><b><p> 2. Remember on which island a ship was robbed.</p> </b><p>The amount of bonus money you can win depends on both.</p><p><br><p>Let’s try a practice game. The game will start by showing you the pirates. First, pick a pirate using the <b> 1, 2, 3 </b> keys on your keyboard. When you are shown a ship, try to remember which island you’re on by making up a story.</p><p>This is just a practice game, so you’re not playing for money. </p><p> Good luck! This game will be very difficult but try your best!</p><p><b>[Press the space bar to continue]</b></p></div>","32","","","","","","","","","","","","","","","","","","","","","","",""
"","do_welcome","46","283282","0.0-35.0-10.0","""event"",""trial"",""time""
""fullscreenenter"",""0"",""2082""
","
","
","""event"",""trial"",""time""
""fullscreenenter"",""0"",""2082""
","
","null","","","","","","","","null","","","","","","","","","","","","","","","","",""
"","do_trial","47","289296","0.0-35.0-11.0","""event"",""trial"",""time""
""fullscreenenter"",""0"",""2082""
","
","
","""event"",""trial"",""time""
""fullscreenenter"",""0"",""2082""
","
","null","","","","","","","","null","1,0,0","","","","","","","","","","","","","","","",""
"","html-keyboard-response","48","290300","0.0-36.0-0.0","""event"",""trial"",""time""
""fullscreenenter"",""0"",""2082""
","
","
","""event"",""trial"",""time""
""fullscreenenter"",""0"",""2082""
","
","null","<p></p>","null","","","","","","","","","","","","","","","","","","","","","","",""
"","do_trial","49","296312","0.0-36.0-1.0","""event"",""trial"",""time""
""fullscreenenter"",""0"",""2082""
","
","
","""event"",""trial"",""time""
""fullscreenenter"",""0"",""2082""
","
","null","","","","","","","","null","1,0,0","","","","","","","","","","","","","","","",""
"","html-keyboard-response","50","297319","0.0-37.0-0.0","""event"",""trial"",""time""
""fullscreenenter"",""0"",""2082""
","
","
","""event"",""trial"",""time""
""fullscreenenter"",""0"",""2082""
","
","null","<p></p>","null","","","","","","","","","","","","","","","","","","","","","","",""
"","do_trial","51","303335","0.0-37.0-1.0","""event"",""trial"",""time""
""fullscreenenter"",""0"",""2082""
","
","
","""event"",""trial"",""time""
""fullscreenenter"",""0"",""2082""
","
","null","","","","","","","","null","1,0,0","","","","","","","","","","","","","","","",""
"","html-keyboard-response","52","304339","0.0-38.0-0.0","""event"",""trial"",""time""
""fullscreenenter"",""0"",""2082""
","
","
","""event"",""trial"",""time""
""fullscreenenter"",""0"",""2082""
","
","null","<p></p>","null","","","","","","","","","","","","","","","","","","","","","","",""
"","do_trial","53","309371","0.0-38.0-1.0","""event"",""trial"",""time""
""fullscreenenter"",""0"",""2082""
","
","
","""event"",""trial"",""time""
""fullscreenenter"",""0"",""2082""
","
","515.2999999988824","","","","","","","","49","1,0,0","","","","","","","","","","","","","","","",""
"","html-keyboard-response","54","310374","0.0-39.0-0.0","""event"",""trial"",""time""
""fullscreenenter"",""0"",""2082""
","
","
","""event"",""trial"",""time""
""fullscreenenter"",""0"",""2082""
","
","null","<p></p>","null","","","","","","","","","","","","","","","","","","","","","","",""
"","do_trial","55","315375","0.0-39.0-1.0","""event"",""trial"",""time""
""fullscreenenter"",""0"",""2082""
","
","
","""event"",""trial"",""time""
""fullscreenenter"",""0"",""2082""
","
","489.09999999962747","","","","","","","","49","1,1,0","","","","","","","","","","","","","","","",""
"","html-keyboard-response","56","316377","0.0-40.0-0.0","""event"",""trial"",""time""
""fullscreenenter"",""0"",""2082""
","
","
","""event"",""trial"",""time""
""fullscreenenter"",""0"",""2082""
","
","null","<p></p>","null","","","","","","","","","","","","","","","","","","","","","","",""
"","do_trial","57","321211","0.0-40.0-1.0","""event"",""trial"",""time""
""fullscreenenter"",""0"",""2082""
","
","
","""event"",""trial"",""time""
""fullscreenenter"",""0"",""2082""
","
","308.3999999985099","","","","","","","","49","1,0,1","","","","","","","","","","","","","","","",""
"","html-keyboard-response","58","322217","0.0-41.0-0.0","""event"",""trial"",""time""
""fullscreenenter"",""0"",""2082""
","
","
","""event"",""trial"",""time""
""fullscreenenter"",""0"",""2082""
","
","null","<p></p>","null","","","","","","","","","","","","","","","","","","","","","","",""
"","do_trial","59","327166","0.0-41.0-1.0","""event"",""trial"",""time""
""fullscreenenter"",""0"",""2082""
","
","
","""event"",""trial"",""time""
""fullscreenenter"",""0"",""2082""
","
","420.19999999925494","","","","","","","","49","0,1,0","","","","","","","","","","","","","","","",""
"","html-keyboard-response","60","328168","0.0-42.0-0.0","""event"",""trial"",""time""
""fullscreenenter"",""0"",""2082""
","
","
","""event"",""trial"",""time""
""fullscreenenter"",""0"",""2082""
","
","null","<p></p>","null","","","","","","","","","","","","","","","","","","","","","","",""
"","do_trial","61","333359","0.0-42.0-1.0","""event"",""trial"",""time""
""fullscreenenter"",""0"",""2082""
","
","
","""event"",""trial"",""time""
""fullscreenenter"",""0"",""2082""
","
","649.4000000003725","","","","","","","","50","1,0,0","","","","","","","","","","","","","","","",""
"","do_bye","62","334869","0.0-43.0-0.0","""event"",""trial"",""time""
""fullscreenenter"",""0"",""2082""
","
","
","""event"",""trial"",""time""
""fullscreenenter"",""0"",""2082""
","
","null","","","","","","","","null","","","","","","","","","","","","","","","","",""
"","do_travel","63","343887","0.0-43.0-1.0","""event"",""trial"",""time""
""fullscreenenter"",""0"",""2082""
","
","
","""event"",""trial"",""time""
""fullscreenenter"",""0"",""2082""
","
","null","","","","","","","","null","","","","","","","","","","","","","","","","",""
"","do_welcome","64","347901","0.0-43.0-2.0","""event"",""trial"",""time""
""fullscreenenter"",""0"",""2082""
","
","
","""event"",""trial"",""time""
""fullscreenenter"",""0"",""2082""
","
","null","","","","","","","","null","","","","","","","","","","","","","","","","",""
"","do_trial","65","354610","0.0-43.0-3.0","""event"",""trial"",""time""
""fullscreenenter"",""0"",""2082""
","
","
","""event"",""trial"",""time""
""fullscreenenter"",""0"",""2082""
","
","2197","","","","","","","","51","1,0,0","","","","","","","","","","","","","","","",""
"","html-keyboard-response","66","355614","0.0-44.0-0.0","""event"",""trial"",""time""
""fullscreenenter"",""0"",""2082""
","
","
","""event"",""trial"",""time""
""fullscreenenter"",""0"",""2082""
","
","null","<p></p>","null","","","","","","","","","","","","","","","","","","","","","","",""
"","do_trial","67","360293","0.0-44.0-1.0","""event"",""trial"",""time""
""fullscreenenter"",""0"",""2082""
","
","
","""event"",""trial"",""time""
""fullscreenenter"",""0"",""2082""
","
","162.60000000149012","","","","","","","","51","1,0,1","","","","","","","","","","","","","","","",""
"","html-keyboard-response","68","361296","0.0-45.0-0.0","""event"",""trial"",""time""
""fullscreenenter"",""0"",""2082""
","
","
","""event"",""trial"",""time""
""fullscreenenter"",""0"",""2082""
","
","null","<p></p>","null","","","","","","","","","","","","","","","","","","","","","","",""
"","do_trial","69","366095","0.0-45.0-1.0","""event"",""trial"",""time""
""fullscreenenter"",""0"",""2082""
","
","
","""event"",""trial"",""time""
""fullscreenenter"",""0"",""2082""
","
","279.90000000037253","","","","","","","","51","1,1,0","","","","","","","","","","","","","","","",""
"","html-keyboard-response","70","367098","0.0-46.0-0.0","""event"",""trial"",""time""
""fullscreenenter"",""0"",""2082""
","
","
","""event"",""trial"",""time""
""fullscreenenter"",""0"",""2082""
","
","null","<p></p>","null","","","","","","","","","","","","","","","","","","","","","","",""
"","do_trial","71","371930","0.0-46.0-1.0","""event"",""trial"",""time""
""fullscreenenter"",""0"",""2082""
","
","
","""event"",""trial"",""time""
""fullscreenenter"",""0"",""2082""
","
","305.59999999962747","","","","","","","","51","0,0,1","","","","","","","","","","","","","","","",""
"","html-keyboard-response","72","372934","0.0-47.0-0.0","""event"",""trial"",""time""
""fullscreenenter"",""0"",""2082""
","
","
","""event"",""trial"",""time""
""fullscreenenter"",""0"",""2082""
","
","null","<p></p>","null","","","","","","","","","","","","","","","","","","","","","","",""
"","do_trial","73","377856","0.0-47.0-1.0","""event"",""trial"",""time""
""fullscreenenter"",""0"",""2082""
","
","
","""event"",""trial"",""time""
""fullscreenenter"",""0"",""2082""
","
","406.40000000037253","","","","","","","","51","1,0,1","","","","","","","","","","","","","","","",""
"","html-keyboard-response","74","381098","0.0-48.0-0.0","""event"",""trial"",""time""
""fullscreenenter"",""0"",""2082""
","
","
","""event"",""trial"",""time""
""fullscreenenter"",""0"",""2082""
","
","3238.0999999996275","<div class='center'><p><img src='run_exp/static/images/tutorial/prac_best_pirate.png'  height='500'></p></div>","51","","","","","","","","","","","","","","","","","","","","","","",""
"","html-keyboard-response","75","382754","0.0-49.0-0.0","""event"",""trial"",""time""
""fullscreenenter"",""0"",""2082""
","
","
","""event"",""trial"",""time""
""fullscreenenter"",""0"",""2082""
","
","1644.7999999988824","<div class='center'><p>That's incorrect! Red beard was the best.</p><p><b>[Press the space bar to continue]</b></p></div>","32","","","","","","","","","","","","","","","","","","","","","","",""
"","html-keyboard-response","76","385542","0.0-49.0-1.0","""event"",""trial"",""time""
""fullscreenenter"",""0"",""2082""
","
","
","""event"",""trial"",""time""
""fullscreenenter"",""0"",""2082""
","
","2781.10000000149","<div class='center'><p><img src='run_exp/static/images/tutorial/prac_source.png'  height='500'></p></div>","50","","","","","","","","","","","","","","","","","","","","","","",""
"","html-keyboard-response","77","386276","0.0-50.0-0.0","""event"",""trial"",""time""
""fullscreenenter"",""0"",""2082""
","
","
","""event"",""trial"",""time""
""fullscreenenter"",""0"",""2082""
","
","731","<div class='center'><p>That's correct! You saw this ship on the cavern island.</p><p><b>[Press the space bar to continue]</b></p></div>","32","","","","","","","","","","","","","","","","","","","","","","",""
"","quiz_beginning","78","397556","0.0-50.0-1.0","""event"",""trial"",""time""
""fullscreenenter"",""0"",""2082""
","
","
","""event"",""trial"",""time""
""fullscreenenter"",""0"",""2082""
","
","null","run_exp/static/audio/clip_16_quiz_intro.m4a","null","","","","","<div class='center'><p>Good job on the practice game! Now, you will be asked some true or false questions to make sure you really understand the rules of the game.</p><p> Press <b>'1'</b> on the keyboard for true and press <b>'2'</b> for false.</p></div>","","","","","","","","","","","","","","","","","",""
"","audio-keyboard-response","79","400725","0.0-50.0-2.0","""event"",""trial"",""time""
""fullscreenenter"",""0"",""2082""
","
","
","""event"",""trial"",""time""
""fullscreenenter"",""0"",""2082""
","
","3164.9000000003725","run_exp/static/audio/clip_17_q1.m4a","49","","","","","","","","","","","","","","","","","","","","","","",""
"","correct","80","403318","0.0-51.0-0.0","""event"",""trial"",""time""
""fullscreenenter"",""0"",""2082""
","
","
","""event"",""trial"",""time""
""fullscreenenter"",""0"",""2082""
","
","null","run_exp/static/audio/clip_18_correct.m4a","null","","","","","<div class='center'><p>That's correct!</p></div>","","","","","","","","","","","","","","","","","",""
"","html-keyboard-response","81","404272","0.0-51.0-1.0","""event"",""trial"",""time""
""fullscreenenter"",""0"",""2082""
","
","
","""event"",""trial"",""time""
""fullscreenenter"",""0"",""2082""
","
","951.0999999996275","<div class='center'><p>That's correct!</p><p><b>[Press the space bar to continue]</b></p></div>","32","","","","","","","","","","","","","","","","","","","","","","",""
"","audio-keyboard-response","82","406299","0.0-51.0-2.0","""event"",""trial"",""time""
""fullscreenenter"",""0"",""2082""
","
","
","""event"",""trial"",""time""
""fullscreenenter"",""0"",""2082""
","
","2023.5","run_exp/static/audio/clip_20_q2.m4a","50","","","","","","","","","","","","","","","","","","","","","","",""
"","correct","83","408893","0.0-52.0-0.0","""event"",""trial"",""time""
""fullscreenenter"",""0"",""2082""
","
","
","""event"",""trial"",""time""
""fullscreenenter"",""0"",""2082""
","
","null","run_exp/static/audio/clip_18_correct.m4a","null","","","","","<div class='center'><p>That's correct!</p></div>","","","","","","","","","","","","","","","","","",""
"","html-keyboard-response","84","409544","0.0-52.0-1.0","""event"",""trial"",""time""
""fullscreenenter"",""0"",""2082""
","
","
","""event"",""trial"",""time""
""fullscreenenter"",""0"",""2082""
","
","649.6999999992549","<div class='center'><p>That's correct!</p><p><b>[Press the space bar to continue]</b></p></div>","32","","","","","","","","","","","","","","","","","","","","","","",""
"","audio-keyboard-response","85","411835","0.0-52.0-2.0","""event"",""trial"",""time""
""fullscreenenter"",""0"",""2082""
","
","
","""event"",""trial"",""time""
""fullscreenenter"",""0"",""2082""
","
","2286.0999999996275","run_exp/static/audio/clip_22_q3.m4a","50","","","","","","","","","","","","","","","","","","","","","","",""
"","correct","86","414375","0.0-53.0-0.0","""event"",""trial"",""time""
""fullscreenenter"",""0"",""2082""
","
","
","""event"",""trial"",""time""
""fullscreenenter"",""0"",""2082""
","
","null","run_exp/static/audio/clip_18_correct.m4a","null","","","","","<div class='center'><p>That's correct!</p></div>","","","","","","","","","","","","","","","","","",""
"","html-keyboard-response","87","414864","0.0-53.0-1.0","""event"",""trial"",""time""
""fullscreenenter"",""0"",""2082""
","
","
","""event"",""trial"",""time""
""fullscreenenter"",""0"",""2082""
","
","486","<div class='center'><p>That's correct!</p><p><b>[Press the space bar to continue]</b></p></div>","32","","","","","","","","","","","","","","","","","","","","","","",""
"","audio-keyboard-response","88","417486","0.0-53.0-2.0","""event"",""trial"",""time""
""fullscreenenter"",""0"",""2082""
","
","
","""event"",""trial"",""time""
""fullscreenenter"",""0"",""2082""
","
","2606.5","run_exp/static/audio/clip_24_q4.m4a","49","","","","","","","","","","","","","","","","","","","","","","",""
"","correct","89","420234","0.0-54.0-0.0","""event"",""trial"",""time""
""fullscreenenter"",""0"",""2082""
","
","
","""event"",""trial"",""time""
""fullscreenenter"",""0"",""2082""
","
","null","run_exp/static/audio/clip_18_correct.m4a","null","","","","","<div class='center'><p>That's correct!</p></div>","","","","","","","","","","","","","","","","","",""
"","html-keyboard-response","90","420521","0.0-54.0-1.0","""event"",""trial"",""time""
""fullscreenenter"",""0"",""2082""
","
","
","""event"",""trial"",""time""
""fullscreenenter"",""0"",""2082""
","
","284","<div class='center'><p>That's correct!</p><p><b>[Press the space bar to continue]</b></p></div>","32","","","","","","","","","","","","","","","","","","","","","","",""
"","q_all_corr","91","429245","0.0-55.0-0.0","""event"",""trial"",""time""
""fullscreenenter"",""0"",""2082""
","
","
","""event"",""trial"",""time""
""fullscreenenter"",""0"",""2082""
","
","null","run_exp/static/audio/clip_27_quiz_all_correct.m4a","null","","","","","<div class='center'><p>Good job! You’re now ready to move on to the real game! Remember this game will be difficult but don't get discouraged and try your best!</p></div>","","","","","","","","","","","","","","","","","",""
"","html-keyboard-response","92","430723","0.0-55.0-1.0","""event"",""trial"",""time""
""fullscreenenter"",""0"",""2082""
","
","
","""event"",""trial"",""time""
""fullscreenenter"",""0"",""2082""
","
","1476.0999999996275","<div class='center'><p>Good job! You’re now ready to move on to the real game! Remember this game will be difficult but don't get discouraged and try your best!</p><p><b>[Press the space bar to continue]</b></p></div>","32","","","","","","","","","","","","","","","","","","","","","","",""
"","do_welcome","93","434737","0.0-56.0-0.0","""event"",""trial"",""time""
""fullscreenenter"",""0"",""2082""
","
","
","""event"",""trial"",""time""
""fullscreenenter"",""0"",""2082""
","
","null","","","","","","","","null","","","","","","","","","","","","","","","","",""
"","do_trial","94","441459","0.0-57.0-0.0","""event"",""trial"",""time""
""fullscreenenter"",""0"",""2082""
","
","
","""event"",""trial"",""time""
""fullscreenenter"",""0"",""2082""
","
","2076.9000000003725","","","","","","","","50","0,1,0","0","highway","0","probe-36","0.6","0.3","0.1","1","","","","","","","",""
"","html-keyboard-response","95","442469","0.0-57.0-1.0","""event"",""trial"",""time""
""fullscreenenter"",""0"",""2082""
","
","
","""event"",""trial"",""time""
""fullscreenenter"",""0"",""2082""
","
","null","<p></p>","null","","","","","","","","","","","","","","","","","","","","","","",""
"","do_trial","96","447360","0.0-58.0-0.0","""event"",""trial"",""time""
""fullscreenenter"",""0"",""2082""
","
","
","""event"",""trial"",""time""
""fullscreenenter"",""0"",""2082""
","
","291.69999999925494","","","","","","","","50","0,1,0","0","highway","1","probe-53","0.6615506762413916","0.3696673462028961","0.16431112475889925","1","","","","","","","",""
"","html-keyboard-response","97","448363","0.0-58.0-1.0","""event"",""trial"",""time""
""fullscreenenter"",""0"",""2082""
","
","
","""event"",""trial"",""time""
""fullscreenenter"",""0"",""2082""
","
","null","<p></p>","null","","","","","","","","","","","","","","","","","","","","","","",""
"","do_trial","98","453350","0.0-59.0-0.0","""event"",""trial"",""time""
""fullscreenenter"",""0"",""2082""
","
","
","""event"",""trial"",""time""
""fullscreenenter"",""0"",""2082""
","
","369.59999999962747","","","","","","","","50","1,1,0","0","highway","2","probe-227","0.588679557855184","0.3880355379660425","0.1595308012567397","1","","","","","","","",""
"","html-keyboard-response","99","454352","0.0-59.0-1.0","""event"",""trial"",""time""
""fullscreenenter"",""0"",""2082""
","
","
","""event"",""trial"",""time""
""fullscreenenter"",""0"",""2082""
","
","null","<p></p>","null","","","","","","","","","","","","","","","","","","","","","","",""
"","do_trial","100","459298","0.0-60.0-0.0","""event"",""trial"",""time""
""fullscreenenter"",""0"",""2082""
","
","
","""event"",""trial"",""time""
""fullscreenenter"",""0"",""2082""
","
","345.59999999962747","","","","","","","","50","0,1,0","0","highway","3","probe-154","0.6770559880218298","0.36503822893325677","0.07455112182687218","1","","","","","","","",""
"","html-keyboard-response","101","460303","0.0-60.0-1.0","""event"",""trial"",""time""
""fullscreenenter"",""0"",""2082""
","
","
","""event"",""trial"",""time""
""fullscreenenter"",""0"",""2082""
","
","null","<p></p>","null","","","","","","","","","","","","","","","","","","","","","","",""
"","do_trial","102","465375","0.0-61.0-0.0","""event"",""trial"",""time""
""fullscreenenter"",""0"",""2082""
","
","
","""event"",""trial"",""time""
""fullscreenenter"",""0"",""2082""
","
","469.40000000037253","","","","","","","","50","1,0,1","0","highway","4","probe-72","0.6705490203315938","0.3010477200385227","0.08441335679940797","0","","","","","","","",""
"","html-keyboard-response","103","466380","0.0-61.0-1.0","""event"",""trial"",""time""
""fullscreenenter"",""0"",""2082""
","
","
","""event"",""trial"",""time""
""fullscreenenter"",""0"",""2082""
","
","null","<p></p>","null","","","","","","","","","","","","","","","","","","","","","","",""
"","do_trial","104","471387","0.0-62.0-0.0","""event"",""trial"",""time""
""fullscreenenter"",""0"",""2082""
","
","
","""event"",""trial"",""time""
""fullscreenenter"",""0"",""2082""
","
","390.5","","","","","","","","50","0,0,0","0","highway","5","probe-139","0.6170059127254064","0.3776186305972687","0.0796591862595086","0","","","","","","","",""
"","html-keyboard-response","105","472391","0.0-62.0-1.0","""event"",""trial"",""time""
""fullscreenenter"",""0"",""2082""
","
","
","""event"",""trial"",""time""
""fullscreenenter"",""0"",""2082""
","
","null","<p></p>","null","","","","","","","","","","","","","","","","","","","","","","",""
"","do_trial","106","477955","0.0-63.0-0.0","""event"",""trial"",""time""
""fullscreenenter"",""0"",""2082""
","
","
","""event"",""trial"",""time""
""fullscreenenter"",""0"",""2082""
","
","946.5","","","","","","","","50","1,0,1","0","highway","6","probe-126","0.4942410539398871","0.31468465599183115","0.15748604977633845","0","","","","","","","",""
"","html-keyboard-response","107","478962","0.0-63.0-1.0","""event"",""trial"",""time""
""fullscreenenter"",""0"",""2082""
","
","
","""event"",""trial"",""time""
""fullscreenenter"",""0"",""2082""
","
","null","<p></p>","null","","","","","","","","","","","","","","","","","","","","","","",""
"","do_trial","108","484263","0.0-64.0-0.0","""event"",""trial"",""time""
""fullscreenenter"",""0"",""2082""
","
","
","""event"",""trial"",""time""
""fullscreenenter"",""0"",""2082""
","
","683.2999999988824","","","","","","","","49","1,0,0","0","highway","7","probe-09","0.5530175552709777","0.2880438775079309","0.22475566156447824","1","","","","","","","",""
"","html-keyboard-response","109","485268","0.0-64.0-1.0","""event"",""trial"",""time""
""fullscreenenter"",""0"",""2082""
","
","
","""event"",""trial"",""time""
""fullscreenenter"",""0"",""2082""
","
","null","<p></p>","null","","","","","","","","","","","","","","","","","","","","","","",""
"","do_trial","110","490195","0.0-65.0-0.0","""event"",""trial"",""time""
""fullscreenenter"",""0"",""2082""
","
","
","""event"",""trial"",""time""
""fullscreenenter"",""0"",""2082""
","
","319.30000000074506","","","","","","","","49","0,1,0","0","highway","8","probe-26","0.5637373505238171","0.37640790596650564","0.13455951063015265","0","","","","","","","",""
"","html-keyboard-response","111","491201","0.0-65.0-1.0","""event"",""trial"",""time""
""fullscreenenter"",""0"",""2082""
","
","
","""event"",""trial"",""time""
""fullscreenenter"",""0"",""2082""
","
","null","<p></p>","null","","","","","","","","","","","","","","","","","","","","","","",""
"","do_trial","112","496152","0.0-66.0-0.0","""event"",""trial"",""time""
""fullscreenenter"",""0"",""2082""
","
","
","""event"",""trial"",""time""
""fullscreenenter"",""0"",""2082""
","
","332.30000000074506","","","","","","","","51","1,1,0","0","highway","9","probe-208","0.4790355923061631","0.42111094345485706","0.1010295005816856","0","","","","","","","",""
"","html-keyboard-response","113","497157","0.0-66.0-1.0","""event"",""trial"",""time""
""fullscreenenter"",""0"",""2082""
","
","
","""event"",""trial"",""time""
""fullscreenenter"",""0"",""2082""
","
","null","<p></p>","null","","","","","","","","","","","","","","","","","","","","","","",""
"","do_trial","114","502110","0.0-67.0-0.0","""event"",""trial"",""time""
""fullscreenenter"",""0"",""2082""
","
","
","""event"",""trial"",""time""
""fullscreenenter"",""0"",""2082""
","
","336.19999999925494","","","","","","","","49","1,1,0","0","highway","10","probe-95","0.5131419072384347","0.3551327424471423","0.2332253705367463","1","","","","","","","",""
"","html-keyboard-response","115","503114","0.0-67.0-1.0","""event"",""trial"",""time""
""fullscreenenter"",""0"",""2082""
","
","
","""event"",""trial"",""time""
""fullscreenenter"",""0"",""2082""
","
","null","<p></p>","null","","","","","","","","","","","","","","","","","","","","","","",""
"","do_trial","116","508170","0.0-68.0-0.0","""event"",""trial"",""time""
""fullscreenenter"",""0"",""2082""
","
","
","""event"",""trial"",""time""
""fullscreenenter"",""0"",""2082""
","
","439.7999999988824","","","","","","","","49","1,1,0","0","highway","11","probe-157","0.5683662816634528","0.3352660012993294","0.1897345085227972","1","","","","","","","",""
"","html-keyboard-response","117","509176","0.0-68.0-1.0","""event"",""trial"",""time""
""fullscreenenter"",""0"",""2082""
","
","
","""event"",""trial"",""time""
""fullscreenenter"",""0"",""2082""
","
","null","<p></p>","null","","","","","","","","","","","","","","","","","","","","","","",""
"","do_trial","118","514144","0.0-69.0-0.0","""event"",""trial"",""time""
""fullscreenenter"",""0"",""2082""
","
","
","""event"",""trial"",""time""
""fullscreenenter"",""0"",""2082""
","
","352.30000000074506","","","","","","","","49","1,0,1","0","highway","12","probe-74","0.5792342798603506","0.269825407175409","0.22416654385356383","1","","","","","","","",""
"","html-keyboard-response","119","515149","0.0-69.0-1.0","""event"",""trial"",""time""
""fullscreenenter"",""0"",""2082""
","
","
","""event"",""trial"",""time""
""fullscreenenter"",""0"",""2082""
","
","null","<p></p>","null","","","","","","","","","","","","","","","","","","","","","","",""
"","do_trial","120","520299","0.0-70.0-0.0","""event"",""trial"",""time""
""fullscreenenter"",""0"",""2082""
","
","
","""event"",""trial"",""time""
""fullscreenenter"",""0"",""2082""
","
","541.0999999996275","","","","","","","","49","0,0,0","0","highway","13","probe-76","0.5058452369867508","0.23692624780103316","0.18598846640634992","0","","","","","","","",""
"","html-keyboard-response","121","521305","0.0-70.0-1.0","""event"",""trial"",""time""
""fullscreenenter"",""0"",""2082""
","
","
","""event"",""trial"",""time""
""fullscreenenter"",""0"",""2082""
","
","null","<p></p>","null","","","","","","","","","","","","","","","","","","","","","","",""
"","do_trial","122","526578","0.0-71.0-0.0","""event"",""trial"",""time""
""fullscreenenter"",""0"",""2082""
","
","
","""event"",""trial"",""time""
""fullscreenenter"",""0"",""2082""
","
","663.7999999988824","","","","","","","","49","0,0,0","0","highway","14","probe-46","0.5135389186053094","0.3613784701268067","0.15764536914844177","0","","","","","","","",""
"","html-keyboard-response","123","527580","0.0-71.0-1.0","""event"",""trial"",""time""
""fullscreenenter"",""0"",""2082""
","
","
","""event"",""trial"",""time""
""fullscreenenter"",""0"",""2082""
","
","null","<p></p>","null","","","","","","","","","","","","","","","","","","","","","","",""
"","do_trial","124","532627","0.0-72.0-0.0","""event"",""trial"",""time""
""fullscreenenter"",""0"",""2082""
","
","
","""event"",""trial"",""time""
""fullscreenenter"",""0"",""2082""
","
","449.59999999962747","","","","","","","","51","1,1,1","0","highway","15","probe-185","0.6263775187273107","0.41718503390102213","0.20578662915954393","1","","","","","","","",""
"","html-keyboard-response","125","533631","0.0-72.0-1.0","""event"",""trial"",""time""
""fullscreenenter"",""0"",""2082""
","
","
","""event"",""trial"",""time""
""fullscreenenter"",""0"",""2082""
","
","null","<p></p>","null","","","","","","","","","","","","","","","","","","","","","","",""
"","do_trial","126","538689","0.0-73.0-0.0","""event"",""trial"",""time""
""fullscreenenter"",""0"",""2082""
","
","
","""event"",""trial"",""time""
""fullscreenenter"",""0"",""2082""
","
","449","","","","","","","","51","1,1,0","0","highway","16","probe-57","0.6324011951582761","0.3806968684350685","0.23748822312565745","0","","","","","","","",""
"","html-keyboard-response","127","539694","0.0-73.0-1.0","""event"",""trial"",""time""
""fullscreenenter"",""0"",""2082""
","
","
","""event"",""trial"",""time""
""fullscreenenter"",""0"",""2082""
","
","null","<p></p>","null","","","","","","","","","","","","","","","","","","","","","","",""
"","do_trial","128","544659","0.0-74.0-0.0","""event"",""trial"",""time""
""fullscreenenter"",""0"",""2082""
","
","
","""event"",""trial"",""time""
""fullscreenenter"",""0"",""2082""
","
","355","","","","","","","","50","1,0,0","0","highway","17","probe-228","0.6786163253607187","0.25485531905659414","0.3508375282670758","0","","","","","","","",""
"","html-keyboard-response","129","545664","0.0-74.0-1.0","""event"",""trial"",""time""
""fullscreenenter"",""0"",""2082""
""blur"",""130"",""548654""
""focus"",""130"",""548656""
""fullscreenexit"",""130"",""548685""
","""event"",""trial"",""time""
""blur"",""130"",""548654""
","""event"",""trial"",""time""
""focus"",""130"",""548656""
","""event"",""trial"",""time""
""fullscreenenter"",""0"",""2082""
","""event"",""trial"",""time""
""fullscreenexit"",""130"",""548685""
","null","<p></p>","null","","","","","","","","","","","","","","","","","","","","","","",""
"","do_trial","130","551762","0.0-75.0-0.0","""event"",""trial"",""time""
""fullscreenenter"",""0"",""2082""
""blur"",""130"",""548654""
""focus"",""130"",""548656""
""fullscreenexit"",""130"",""548685""
","""event"",""trial"",""time""
""blur"",""130"",""548654""
","""event"",""trial"",""time""
""focus"",""130"",""548656""
","""event"",""trial"",""time""
""fullscreenenter"",""0"",""2082""
","""event"",""trial"",""time""
""fullscreenexit"",""130"",""548685""
","null","","","","","","","","null","0,0,0","0","highway","18","probe-210","0.5806405355383665","0.2966768032125955","0.25329338708684607","","","","","","","","",""
"","html-keyboard-response","131","552768","0.0-75.0-1.0","""event"",""trial"",""time""
""fullscreenenter"",""0"",""2082""
""blur"",""130"",""548654""
""focus"",""130"",""548656""
""fullscreenexit"",""130"",""548685""
","""event"",""trial"",""time""
""blur"",""130"",""548654""
","""event"",""trial"",""time""
""focus"",""130"",""548656""
","""event"",""trial"",""time""
""fullscreenenter"",""0"",""2082""
","""event"",""trial"",""time""
""fullscreenexit"",""130"",""548685""
","null","<p></p>","null","","","","","","","","","","","","","","","","","","","","","","",""
"","do_trial","132","558172","0.0-76.0-0.0","""event"",""trial"",""time""
""fullscreenenter"",""0"",""2082""
""blur"",""130"",""548654""
""focus"",""130"",""548656""
""fullscreenexit"",""130"",""548685""
","""event"",""trial"",""time""
""blur"",""130"",""548654""
","""event"",""trial"",""time""
""focus"",""130"",""548656""
","""event"",""trial"",""time""
""fullscreenenter"",""0"",""2082""
","""event"",""trial"",""time""
""fullscreenexit"",""130"",""548685""
","804","","","","","","","","49","1,0,0","0","highway","19","probe-11","0.6524077103200796","0.24719640574915638","0.055003864012211995","1","","","","","","","",""
"","html-keyboard-response","133","559175","0.0-76.0-1.0","""event"",""trial"",""time""
""fullscreenenter"",""0"",""2082""
""blur"",""130"",""548654""
""focus"",""130"",""548656""
""fullscreenexit"",""130"",""548685""
","""event"",""trial"",""time""
""blur"",""130"",""548654""
","""event"",""trial"",""time""
""focus"",""130"",""548656""
","""event"",""trial"",""time""
""fullscreenenter"",""0"",""2082""
","""event"",""trial"",""time""
""fullscreenexit"",""130"",""548685""
","null","<p></p>","null","","","","","","","","","","","","","","","","","","","","","","",""
"","do_trial","134","564302","0.0-77.0-0.0","""event"",""trial"",""time""
""fullscreenenter"",""0"",""2082""
""blur"",""130"",""548654""
""focus"",""130"",""548656""
""fullscreenexit"",""130"",""548685""
","""event"",""trial"",""time""
""blur"",""130"",""548654""
","""event"",""trial"",""time""
""focus"",""130"",""548656""
","""event"",""trial"",""time""
""fullscreenenter"",""0"",""2082""
","""event"",""trial"",""time""
""fullscreenexit"",""130"",""548685""
","513.9000000003725","","","","","","","","49","1,0,0","0","highway","20","probe-170","0.6571502233731554","0.3421246557450811","0.1437828539511139","1","","","","","","","",""
"","html-keyboard-response","135","565306","0.0-77.0-1.0","""event"",""trial"",""time""
""fullscreenenter"",""0"",""2082""
""blur"",""130"",""548654""
""focus"",""130"",""548656""
""fullscreenexit"",""130"",""548685""
","""event"",""trial"",""time""
""blur"",""130"",""548654""
","""event"",""trial"",""time""
""focus"",""130"",""548656""
","""event"",""trial"",""time""
""fullscreenenter"",""0"",""2082""
","""event"",""trial"",""time""
""fullscreenexit"",""130"",""548685""
","null","<p></p>","null","","","","","","","","","","","","","","","","","","","","","","",""
"","do_trial","136","571413","0.0-78.0-0.0","""event"",""trial"",""time""
""fullscreenenter"",""0"",""2082""
""blur"",""130"",""548654""
""focus"",""130"",""548656""
""fullscreenexit"",""130"",""548685""
","""event"",""trial"",""time""
""blur"",""130"",""548654""
","""event"",""trial"",""time""
""focus"",""130"",""548656""
","""event"",""trial"",""time""
""fullscreenenter"",""0"",""2082""
","""event"",""trial"",""time""
""fullscreenexit"",""130"",""548685""
","null","","","","","","","","null","1,0,0","0","highway","21","probe-193","0.6552869379660039","0.2715685770015135","0.27730204802865105","","","","","","","","",""
"","html-keyboard-response","137","572419","0.0-78.0-1.0","""event"",""trial"",""time""
""fullscreenenter"",""0"",""2082""
""blur"",""130"",""548654""
""focus"",""130"",""548656""
""fullscreenexit"",""130"",""548685""
","""event"",""trial"",""time""
""blur"",""130"",""548654""
","""event"",""trial"",""time""
""focus"",""130"",""548656""
","""event"",""trial"",""time""
""fullscreenenter"",""0"",""2082""
","""event"",""trial"",""time""
""fullscreenexit"",""130"",""548685""
","null","<p></p>","null","","","","","","","","","","","","","","","","","","","","","","",""
"","do_trial","138","577527","0.0-79.0-0.0","""event"",""trial"",""time""
""fullscreenenter"",""0"",""2082""
""blur"",""130"",""548654""
""focus"",""130"",""548656""
""fullscreenexit"",""130"",""548685""
","""event"",""trial"",""time""
""blur"",""130"",""548654""
","""event"",""trial"",""time""
""focus"",""130"",""548656""
","""event"",""trial"",""time""
""fullscreenenter"",""0"",""2082""
","""event"",""trial"",""time""
""fullscreenexit"",""130"",""548685""
","496","","","","","","","","49","1,0,0","0","highway","22","probe-121","0.4820973735775833","0.2003957428969888","0.264266610902379","1","","","","","","","",""
"","html-keyboard-response","139","578532","0.0-79.0-1.0","""event"",""trial"",""time""
""fullscreenenter"",""0"",""2082""
""blur"",""130"",""548654""
""focus"",""130"",""548656""
""fullscreenexit"",""130"",""548685""
","""event"",""trial"",""time""
""blur"",""130"",""548654""
","""event"",""trial"",""time""
""focus"",""130"",""548656""
","""event"",""trial"",""time""
""fullscreenenter"",""0"",""2082""
","""event"",""trial"",""time""
""fullscreenexit"",""130"",""548685""
","null","<p></p>","null","","","","","","","","","","","","","","","","","","","","","","",""
"","do_trial","140","583634","0.0-80.0-0.0","""event"",""trial"",""time""
""fullscreenenter"",""0"",""2082""
""blur"",""130"",""548654""
""focus"",""130"",""548656""
""fullscreenexit"",""130"",""548685""
","""event"",""trial"",""time""
""blur"",""130"",""548654""
","""event"",""trial"",""time""
""focus"",""130"",""548656""
","""event"",""trial"",""time""
""fullscreenenter"",""0"",""2082""
","""event"",""trial"",""time""
""fullscreenexit"",""130"",""548685""
","493.69999999925494","","","","","","","","49","0,0,0","0","highway","23","probe-37","0.4110956442913316","0.17148182228628728","0.17016936959887777","0","","","","","","","",""
"","html-keyboard-response","141","584639","0.0-80.0-1.0","""event"",""trial"",""time""
""fullscreenenter"",""0"",""2082""
""blur"",""130"",""548654""
""focus"",""130"",""548656""
""fullscreenexit"",""130"",""548685""
","""event"",""trial"",""time""
""blur"",""130"",""548654""
","""event"",""trial"",""time""
""focus"",""130"",""548656""
","""event"",""trial"",""time""
""fullscreenenter"",""0"",""2082""
","""event"",""trial"",""time""
""fullscreenexit"",""130"",""548685""
","null","<p></p>","null","","","","","","","","","","","","","","","","","","","","","","",""
"","do_trial","142","589745","0.0-81.0-0.0","""event"",""trial"",""time""
""fullscreenenter"",""0"",""2082""
""blur"",""130"",""548654""
""focus"",""130"",""548656""
""fullscreenexit"",""130"",""548685""
","""event"",""trial"",""time""
""blur"",""130"",""548654""
","""event"",""trial"",""time""
""focus"",""130"",""548656""
","""event"",""trial"",""time""
""fullscreenenter"",""0"",""2082""
","""event"",""trial"",""time""
""fullscreenexit"",""130"",""548685""
","498.8999999985099","","","","","","","","49","0,0,0","0","highway","24","probe-183","0.4871618376563881","0.23146500956876112","0.19049314596570333","0","","","","","","","",""
"","html-keyboard-response","143","590750","0.0-81.0-1.0","""event"",""trial"",""time""
""fullscreenenter"",""0"",""2082""
""blur"",""130"",""548654""
""focus"",""130"",""548656""
""fullscreenexit"",""130"",""548685""
","""event"",""trial"",""time""
""blur"",""130"",""548654""
","""event"",""trial"",""time""
""focus"",""130"",""548656""
","""event"",""trial"",""time""
""fullscreenenter"",""0"",""2082""
","""event"",""trial"",""time""
""fullscreenexit"",""130"",""548685""
","null","<p></p>","null","","","","","","","","","","","","","","","","","","","","","","",""
"","do_trial","144","595727","0.0-82.0-0.0","""event"",""trial"",""time""
""fullscreenenter"",""0"",""2082""
""blur"",""130"",""548654""
""focus"",""130"",""548656""
""fullscreenexit"",""130"",""548685""
","""event"",""trial"",""time""
""blur"",""130"",""548654""
","""event"",""trial"",""time""
""focus"",""130"",""548656""
","""event"",""trial"",""time""
""fullscreenenter"",""0"",""2082""
","""event"",""trial"",""time""
""fullscreenexit"",""130"",""548685""
","370.40000000037253","","","","","","","","51","0,1,1","0","highway","25","probe-110","0.526741880188919","0.22301434618041757","0.16851202036561014","1","","","","","","","",""
"","html-keyboard-response","145","596730","0.0-82.0-1.0","""event"",""trial"",""time""
""fullscreenenter"",""0"",""2082""
""blur"",""130"",""548654""
""focus"",""130"",""548656""
""fullscreenexit"",""130"",""548685""
","""event"",""trial"",""time""
""blur"",""130"",""548654""
","""event"",""trial"",""time""
""focus"",""130"",""548656""
","""event"",""trial"",""time""
""fullscreenenter"",""0"",""2082""
","""event"",""trial"",""time""
""fullscreenexit"",""130"",""548685""
","null","<p></p>","null","","","","","","","","","","","","","","","","","","","","","","",""
"","do_trial","146","601746","0.0-83.0-0.0","""event"",""trial"",""time""
""fullscreenenter"",""0"",""2082""
""blur"",""130"",""548654""
""focus"",""130"",""548656""
""fullscreenexit"",""130"",""548685""
","""event"",""trial"",""time""
""blur"",""130"",""548654""
","""event"",""trial"",""time""
""focus"",""130"",""548656""
","""event"",""trial"",""time""
""fullscreenenter"",""0"",""2082""
","""event"",""trial"",""time""
""fullscreenexit"",""130"",""548685""
","399.59999999962747","","","","","","","","51","1,0,0","0","highway","26","probe-204","0.556500295404436","0.3051350841367287","0.10062278691913293","0","","","","","","","",""
"","html-keyboard-response","147","602754","0.0-83.0-1.0","""event"",""trial"",""time""
""fullscreenenter"",""0"",""2082""
""blur"",""130"",""548654""
""focus"",""130"",""548656""
""fullscreenexit"",""130"",""548685""
","""event"",""trial"",""time""
""blur"",""130"",""548654""
","""event"",""trial"",""time""
""focus"",""130"",""548656""
","""event"",""trial"",""time""
""fullscreenenter"",""0"",""2082""
","""event"",""trial"",""time""
""fullscreenexit"",""130"",""548685""
","null","<p></p>","null","","","","","","","","","","","","","","","","","","","","","","",""
"","do_trial","148","607661","0.0-84.0-0.0","""event"",""trial"",""time""
""fullscreenenter"",""0"",""2082""
""blur"",""130"",""548654""
""focus"",""130"",""548656""
""fullscreenexit"",""130"",""548685""
","""event"",""trial"",""time""
""blur"",""130"",""548654""
","""event"",""trial"",""time""
""focus"",""130"",""548656""
","""event"",""trial"",""time""
""fullscreenenter"",""0"",""2082""
","""event"",""trial"",""time""
""fullscreenexit"",""130"",""548685""
","309.2000000011176","","","","","","","","51","1,0,1","0","highway","27","probe-43","0.6588940623216115","0.31426650941829926","0.18591009668035888","1","","","","","","","",""
"","html-keyboard-response","149","608667","0.0-84.0-1.0","""event"",""trial"",""time""
""fullscreenenter"",""0"",""2082""
""blur"",""130"",""548654""
""focus"",""130"",""548656""
""fullscreenexit"",""130"",""548685""
","""event"",""trial"",""time""
""blur"",""130"",""548654""
","""event"",""trial"",""time""
""focus"",""130"",""548656""
","""event"",""trial"",""time""
""fullscreenenter"",""0"",""2082""
","""event"",""trial"",""time""
""fullscreenexit"",""130"",""548685""
","null","<p></p>","null","","","","","","","","","","","","","","","","","","","","","","",""
"","do_trial","150","613717","0.0-85.0-0.0","""event"",""trial"",""time""
""fullscreenenter"",""0"",""2082""
""blur"",""130"",""548654""
""focus"",""130"",""548656""
""fullscreenexit"",""130"",""548685""
","""event"",""trial"",""time""
""blur"",""130"",""548654""
","""event"",""trial"",""time""
""focus"",""130"",""548656""
","""event"",""trial"",""time""
""fullscreenenter"",""0"",""2082""
","""event"",""trial"",""time""
""fullscreenexit"",""130"",""548685""
","437.59999999962747","","","","","","","","51","0,0,0","0","highway","28","probe-168","0.5430779706409868","0.20864857651569524","0.21825877947435357","0","","","","","","","",""
"","html-keyboard-response","151","614724","0.0-85.0-1.0","""event"",""trial"",""time""
""fullscreenenter"",""0"",""2082""
""blur"",""130"",""548654""
""focus"",""130"",""548656""
""fullscreenexit"",""130"",""548685""
","""event"",""trial"",""time""
""blur"",""130"",""548654""
","""event"",""trial"",""time""
""focus"",""130"",""548656""
","""event"",""trial"",""time""
""fullscreenenter"",""0"",""2082""
","""event"",""trial"",""time""
""fullscreenexit"",""130"",""548685""
","null","<p></p>","null","","","","","","","","","","","","","","","","","","","","","","",""
"","do_trial","152","619787","0.0-86.0-0.0","""event"",""trial"",""time""
""fullscreenenter"",""0"",""2082""
""blur"",""130"",""548654""
""focus"",""130"",""548656""
""fullscreenexit"",""130"",""548685""
","""event"",""trial"",""time""
""blur"",""130"",""548654""
","""event"",""trial"",""time""
""focus"",""130"",""548656""
","""event"",""trial"",""time""
""fullscreenenter"",""0"",""2082""
","""event"",""trial"",""time""
""fullscreenexit"",""130"",""548685""
","447.30000000074506","","","","","","","","50","0,0,0","0","highway","29","probe-215","0.613834346458032","0.23777884291577775","0.1323339957887182","0","","","","","","","",""
"","html-keyboard-response","153","620792","0.0-86.0-1.0","""event"",""trial"",""time""
""fullscreenenter"",""0"",""2082""
""blur"",""130"",""548654""
""focus"",""130"",""548656""
""fullscreenexit"",""130"",""548685""
","""event"",""trial"",""time""
""blur"",""130"",""548654""
","""event"",""trial"",""time""
""focus"",""130"",""548656""
","""event"",""trial"",""time""
""fullscreenenter"",""0"",""2082""
","""event"",""trial"",""time""
""fullscreenexit"",""130"",""548685""
","null","<p></p>","null","","","","","","","","","","","","","","","","","","","","","","",""
"","do_bye","154","622302","0.0-87.0-0.0","""event"",""trial"",""time""
""fullscreenenter"",""0"",""2082""
""blur"",""130"",""548654""
""focus"",""130"",""548656""
""fullscreenexit"",""130"",""548685""
","""event"",""trial"",""time""
""blur"",""130"",""548654""
","""event"",""trial"",""time""
""focus"",""130"",""548656""
","""event"",""trial"",""time""
""fullscreenenter"",""0"",""2082""
","""event"",""trial"",""time""
""fullscreenexit"",""130"",""548685""
","null","","","","","","","","null","","","","","","","","","","","","","","","","",""
"","break","155","627273","0.0-87.0-1.0","""event"",""trial"",""time""
""fullscreenenter"",""0"",""2082""
""blur"",""130"",""548654""
""focus"",""130"",""548656""
""fullscreenexit"",""130"",""548685""
","""event"",""trial"",""time""
""blur"",""130"",""548654""
","""event"",""trial"",""time""
""focus"",""130"",""548656""
","""event"",""trial"",""time""
""fullscreenenter"",""0"",""2082""
","""event"",""trial"",""time""
""fullscreenexit"",""130"",""548685""
","4967.9000000003725","<div class='center'><p>Time to take a quick break! You have 2 minutes to rest, but you can move on sooner if you'd like.</p><p> Press the <b>space bar</b> to continue.</p></div>","32","","","","","","","","","","","","","","","","","","","","","","",""
"","do_travel","156","636282","0.0-88.0-0.0","""event"",""trial"",""time""
""fullscreenenter"",""0"",""2082""
""blur"",""130"",""548654""
""focus"",""130"",""548656""
""fullscreenexit"",""130"",""548685""
","""event"",""trial"",""time""
""blur"",""130"",""548654""
","""event"",""trial"",""time""
""focus"",""130"",""548656""
","""event"",""trial"",""time""
""fullscreenenter"",""0"",""2082""
","""event"",""trial"",""time""
""fullscreenexit"",""130"",""548685""
","null","","","","","","","","null","","","","","","","","","","","","","","","","",""
"","do_welcome","157","640291","0.0-88.0-1.0","""event"",""trial"",""time""
""fullscreenenter"",""0"",""2082""
""blur"",""130"",""548654""
""focus"",""130"",""548656""
""fullscreenexit"",""130"",""548685""
","""event"",""trial"",""time""
""blur"",""130"",""548654""
","""event"",""trial"",""time""
""focus"",""130"",""548656""
","""event"",""trial"",""time""
""fullscreenenter"",""0"",""2082""
","""event"",""trial"",""time""
""fullscreenexit"",""130"",""548685""
","null","","","","","","","","null","","","","","","","","","","","","","","","","",""
"","do_trial","158","645960","0.0-89.0-0.0","""event"",""trial"",""time""
""fullscreenenter"",""0"",""2082""
""blur"",""130"",""548654""
""focus"",""130"",""548656""
""fullscreenexit"",""130"",""548685""
","""event"",""trial"",""time""
""blur"",""130"",""548654""
","""event"",""trial"",""time""
""focus"",""130"",""548656""
","""event"",""trial"",""time""
""fullscreenenter"",""0"",""2082""
","""event"",""trial"",""time""
""fullscreenexit"",""130"",""548685""
","1054","","","","","","","","49","1,1,0","1","mountain","30","probe-186","1","0.2800929859051243","0.1706016012777554","1","","","","","","","",""
"","html-keyboard-response","159","646963","0.0-89.0-1.0","""event"",""trial"",""time""
""fullscreenenter"",""0"",""2082""
""blur"",""130"",""548654""
""focus"",""130"",""548656""
""fullscreenexit"",""130"",""548685""
","""event"",""trial"",""time""
""blur"",""130"",""548654""
","""event"",""trial"",""time""
""focus"",""130"",""548656""
","""event"",""trial"",""time""
""fullscreenenter"",""0"",""2082""
","""event"",""trial"",""time""
""fullscreenexit"",""130"",""548685""
","null","<p></p>","null","","","","","","","","","","","","","","","","","","","","","","",""
"","do_trial","160","651615","0.0-90.0-0.0","""event"",""trial"",""time""
""fullscreenenter"",""0"",""2082""
""blur"",""130"",""548654""
""focus"",""130"",""548656""
""fullscreenexit"",""130"",""548685""
","""event"",""trial"",""time""
""blur"",""130"",""548654""
","""event"",""trial"",""time""
""focus"",""130"",""548656""
","""event"",""trial"",""time""
""fullscreenenter"",""0"",""2082""
","""event"",""trial"",""time""
""fullscreenexit"",""130"",""548685""
","44.100000001490116","","","","","","","","49","1,0,0","1","mountain","31","probe-96","1","0.2518810521236483","0.1519481839172421","1","","","","","","","",""
"","html-keyboard-response","161","652619","0.0-90.0-1.0","""event"",""trial"",""time""
""fullscreenenter"",""0"",""2082""
""blur"",""130"",""548654""
""focus"",""130"",""548656""
""fullscreenexit"",""130"",""548685""
","""event"",""trial"",""time""
""blur"",""130"",""548654""
","""event"",""trial"",""time""
""focus"",""130"",""548656""
","""event"",""trial"",""time""
""fullscreenenter"",""0"",""2082""
","""event"",""trial"",""time""
""fullscreenexit"",""130"",""548685""
","null","<p></p>","null","","","","","","","","","","","","","","","","","","","","","","",""
"","do_trial","162","657373","0.0-91.0-0.0","""event"",""trial"",""time""
""fullscreenenter"",""0"",""2082""
""blur"",""130"",""548654""
""focus"",""130"",""548656""
""fullscreenexit"",""130"",""548685""
","""event"",""trial"",""time""
""blur"",""130"",""548654""
","""event"",""trial"",""time""
""focus"",""130"",""548656""
","""event"",""trial"",""time""
""fullscreenenter"",""0"",""2082""
","""event"",""trial"",""time""
""fullscreenexit"",""130"",""548685""
","136.59999999962747","","","","","","","","49","1,0,0","1","mountain","32","probe-78","1","0.28460916686699095","0.12164827183237936","1","","","","","","","",""
"","html-keyboard-response","163","658376","0.0-91.0-1.0","""event"",""trial"",""time""
""fullscreenenter"",""0"",""2082""
""blur"",""130"",""548654""
""focus"",""130"",""548656""
""fullscreenexit"",""130"",""548685""
""blur"",""164"",""658839""
","""event"",""trial"",""time""
""blur"",""130"",""548654""
""blur"",""164"",""658839""
","""event"",""trial"",""time""
""focus"",""130"",""548656""
","""event"",""trial"",""time""
""fullscreenenter"",""0"",""2082""
","""event"",""trial"",""time""
""fullscreenexit"",""130"",""548685""
","null","<p></p>","null","","","","","","","","","","","","","","","","","","","","","","",""
"","do_trial","164","663299","0.0-92.0-0.0","""event"",""trial"",""time""
""fullscreenenter"",""0"",""2082""
""blur"",""130"",""548654""
""focus"",""130"",""548656""
""fullscreenexit"",""130"",""548685""
""blur"",""164"",""658839""
","""event"",""trial"",""time""
""blur"",""130"",""548654""
""blur"",""164"",""658839""
","""event"",""trial"",""time""
""focus"",""130"",""548656""
","""event"",""trial"",""time""
""fullscreenenter"",""0"",""2082""
","""event"",""trial"",""time""
""fullscreenexit"",""130"",""548685""
","311.7000000011176","","","","","","","","49","0,0,0","1","mountain","33","probe-171","0.9446764657070692","0.29731389420760246","0.2178692528176087","0","","","","","","","",""
"","html-keyboard-response","165","664305","0.0-92.0-1.0","""event"",""trial"",""time""
""fullscreenenter"",""0"",""2082""
""blur"",""130"",""548654""
""focus"",""130"",""548656""
""fullscreenexit"",""130"",""548685""
""blur"",""164"",""658839""
""focus"",""166"",""666907""
","""event"",""trial"",""time""
""blur"",""130"",""548654""
""blur"",""164"",""658839""
","""event"",""trial"",""time""
""focus"",""130"",""548656""
""focus"",""166"",""666907""
","""event"",""trial"",""time""
""fullscreenenter"",""0"",""2082""
","""event"",""trial"",""time""
""fullscreenexit"",""130"",""548685""
","null","<p></p>","null","","","","","","","","","","","","","","","","","","","","","","",""
"","do_trial","166","670419","0.0-93.0-0.0","""event"",""trial"",""time""
""fullscreenenter"",""0"",""2082""
""blur"",""130"",""548654""
""focus"",""130"",""548656""
""fullscreenexit"",""130"",""548685""
""blur"",""164"",""658839""
""focus"",""166"",""666907""
","""event"",""trial"",""time""
""blur"",""130"",""548654""
""blur"",""164"",""658839""
","""event"",""trial"",""time""
""focus"",""130"",""548656""
""focus"",""166"",""666907""
","""event"",""trial"",""time""
""fullscreenenter"",""0"",""2082""
","""event"",""trial"",""time""
""fullscreenexit"",""130"",""548685""
","null","","","","","","","","null","1,1,0","1","mountain","34","probe-221","0.711684865292763","0.25805083254365746","0.1466125733235857","","","","","","","","",""
"","html-keyboard-response","167","671424","0.0-93.0-1.0","""event"",""trial"",""time""
""fullscreenenter"",""0"",""2082""
""blur"",""130"",""548654""
""focus"",""130"",""548656""
""fullscreenexit"",""130"",""548685""
""blur"",""164"",""658839""
""focus"",""166"",""666907""
","""event"",""trial"",""time""
""blur"",""130"",""548654""
""blur"",""164"",""658839""
","""event"",""trial"",""time""
""focus"",""130"",""548656""
""focus"",""166"",""666907""
","""event"",""trial"",""time""
""fullscreenenter"",""0"",""2082""
","""event"",""trial"",""time""
""fullscreenexit"",""130"",""548685""
","null","<p></p>","null","","","","","","","","","","","","","","","","","","","","","","",""
"","do_trial","168","677069","0.0-94.0-0.0","""event"",""trial"",""time""
""fullscreenenter"",""0"",""2082""
""blur"",""130"",""548654""
""focus"",""130"",""548656""
""fullscreenexit"",""130"",""548685""
""blur"",""164"",""658839""
""focus"",""166"",""666907""
","""event"",""trial"",""time""
""blur"",""130"",""548654""
""blur"",""164"",""658839""
","""event"",""trial"",""time""
""focus"",""130"",""548656""
""focus"",""166"",""666907""
","""event"",""trial"",""time""
""fullscreenenter"",""0"",""2082""
","""event"",""trial"",""time""
""fullscreenexit"",""130"",""548685""
","1025.5","","","","","","","","49","1,0,1","1","mountain","35","probe-192","0.7877166076191651","0.29239272566491764","0.22241357625452615","1","","","","","","","",""
"","html-keyboard-response","169","678074","0.0-94.0-1.0","""event"",""trial"",""time""
""fullscreenenter"",""0"",""2082""
""blur"",""130"",""548654""
""focus"",""130"",""548656""
""fullscreenexit"",""130"",""548685""
""blur"",""164"",""658839""
""focus"",""166"",""666907""
","""event"",""trial"",""time""
""blur"",""130"",""548654""
""blur"",""164"",""658839""
","""event"",""trial"",""time""
""focus"",""130"",""548656""
""focus"",""166"",""666907""
","""event"",""trial"",""time""
""fullscreenenter"",""0"",""2082""
","""event"",""trial"",""time""
""fullscreenexit"",""130"",""548685""
","null","<p></p>","null","","","","","","","","","","","","","","","","","","","","","","",""
"","do_trial","170","683138","0.0-95.0-0.0","""event"",""trial"",""time""
""fullscreenenter"",""0"",""2082""
""blur"",""130"",""548654""
""focus"",""130"",""548656""
""fullscreenexit"",""130"",""548685""
""blur"",""164"",""658839""
""focus"",""166"",""666907""
","""event"",""trial"",""time""
""blur"",""130"",""548654""
""blur"",""164"",""658839""
","""event"",""trial"",""time""
""focus"",""130"",""548656""
""focus"",""166"",""666907""
","""event"",""trial"",""time""
""fullscreenenter"",""0"",""2082""
","""event"",""trial"",""time""
""fullscreenexit"",""130"",""548685""
","465.5","","","","","","","","50","1,1,0","1","mountain","36","probe-01","0.6696827319564176","0.4239669529095687","0.11537757828305231","1","","","","","","","",""
"","html-keyboard-response","171","684141","0.0-95.0-1.0","""event"",""trial"",""time""
""fullscreenenter"",""0"",""2082""
""blur"",""130"",""548654""
""focus"",""130"",""548656""
""fullscreenexit"",""130"",""548685""
""blur"",""164"",""658839""
""focus"",""166"",""666907""
","""event"",""trial"",""time""
""blur"",""130"",""548654""
""blur"",""164"",""658839""
","""event"",""trial"",""time""
""focus"",""130"",""548656""
""focus"",""166"",""666907""
","""event"",""trial"",""time""
""fullscreenenter"",""0"",""2082""
","""event"",""trial"",""time""
""fullscreenexit"",""130"",""548685""
","null","<p></p>","null","","","","","","","","","","","","","","","","","","","","","","",""
"","do_trial","172","691719","0.0-96.0-0.0","""event"",""trial"",""time""
""fullscreenenter"",""0"",""2082""
""blur"",""130"",""548654""
""focus"",""130"",""548656""
""fullscreenexit"",""130"",""548685""
""blur"",""164"",""658839""
""focus"",""166"",""666907""
","""event"",""trial"",""time""
""blur"",""130"",""548654""
""blur"",""164"",""658839""
","""event"",""trial"",""time""
""focus"",""130"",""548656""
""focus"",""166"",""666907""
","""event"",""trial"",""time""
""fullscreenenter"",""0"",""2082""
","""event"",""trial"",""time""
""fullscreenexit"",""130"",""548685""
","2966.800000000745","","","","","","","","51","0,1,0","1","mountain","37","probe-151","0.6146885911368629","0.36187505703068873","0.056946447306211914","0","","","","","","","",""
"","html-keyboard-response","173","692726","0.0-96.0-1.0","""event"",""trial"",""time""
""fullscreenenter"",""0"",""2082""
""blur"",""130"",""548654""
""focus"",""130"",""548656""
""fullscreenexit"",""130"",""548685""
""blur"",""164"",""658839""
""focus"",""166"",""666907""
","""event"",""trial"",""time""
""blur"",""130"",""548654""
""blur"",""164"",""658839""
","""event"",""trial"",""time""
""focus"",""130"",""548656""
""focus"",""166"",""666907""
","""event"",""trial"",""time""
""fullscreenenter"",""0"",""2082""
","""event"",""trial"",""time""
""fullscreenexit"",""130"",""548685""
","null","<p></p>","null","","","","","","","","","","","","","","","","","","","","","","",""
"","do_trial","174","697927","0.0-97.0-0.0","""event"",""trial"",""time""
""fullscreenenter"",""0"",""2082""
""blur"",""130"",""548654""
""focus"",""130"",""548656""
""fullscreenexit"",""130"",""548685""
""blur"",""164"",""658839""
""focus"",""166"",""666907""
","""event"",""trial"",""time""
""blur"",""130"",""548654""
""blur"",""164"",""658839""
","""event"",""trial"",""time""
""focus"",""130"",""548656""
""focus"",""166"",""666907""
","""event"",""trial"",""time""
""fullscreenenter"",""0"",""2082""
","""event"",""trial"",""time""
""fullscreenexit"",""130"",""548685""
","583.6000000014901","","","","","","","","51","0,0,0","1","mountain","38","probe-103","0.43248560807534925","0.21051061564363294","0.14904696100799925","0","","","","","","","",""
"","html-keyboard-response","175","698932","0.0-97.0-1.0","""event"",""trial"",""time""
""fullscreenenter"",""0"",""2082""
""blur"",""130"",""548654""
""focus"",""130"",""548656""
""fullscreenexit"",""130"",""548685""
""blur"",""164"",""658839""
""focus"",""166"",""666907""
","""event"",""trial"",""time""
""blur"",""130"",""548654""
""blur"",""164"",""658839""
","""event"",""trial"",""time""
""focus"",""130"",""548656""
""focus"",""166"",""666907""
","""event"",""trial"",""time""
""fullscreenenter"",""0"",""2082""
","""event"",""trial"",""time""
""fullscreenexit"",""130"",""548685""
","null","<p></p>","null","","","","","","","","","","","","","","","","","","","","","","",""
"","do_trial","176","704036","0.0-98.0-0.0","""event"",""trial"",""time""
""fullscreenenter"",""0"",""2082""
""blur"",""130"",""548654""
""focus"",""130"",""548656""
""fullscreenexit"",""130"",""548685""
""blur"",""164"",""658839""
""focus"",""166"",""666907""
","""event"",""trial"",""time""
""blur"",""130"",""548654""
""blur"",""164"",""658839""
","""event"",""trial"",""time""
""focus"",""130"",""548656""
""focus"",""166"",""666907""
","""event"",""trial"",""time""
""fullscreenenter"",""0"",""2082""
","""event"",""trial"",""time""
""fullscreenexit"",""130"",""548685""
","491.40000000037253","","","","","","","","51","0,0,0","1","mountain","39","probe-56","0.48482436613402796","0.29229941204408955","0.06864673889260056","0","","","","","","","",""
"","html-keyboard-response","177","705051","0.0-98.0-1.0","""event"",""trial"",""time""
""fullscreenenter"",""0"",""2082""
""blur"",""130"",""548654""
""focus"",""130"",""548656""
""fullscreenexit"",""130"",""548685""
""blur"",""164"",""658839""
""focus"",""166"",""666907""
","""event"",""trial"",""time""
""blur"",""130"",""548654""
""blur"",""164"",""658839""
","""event"",""trial"",""time""
""focus"",""130"",""548656""
""focus"",""166"",""666907""
","""event"",""trial"",""time""
""fullscreenenter"",""0"",""2082""
","""event"",""trial"",""time""
""fullscreenexit"",""130"",""548685""
","null","<p></p>","null","","","","","","","","","","","","","","","","","","","","","","",""
"","do_trial","178","710076","0.0-99.0-0.0","""event"",""trial"",""time""
""fullscreenenter"",""0"",""2082""
""blur"",""130"",""548654""
""focus"",""130"",""548656""
""fullscreenexit"",""130"",""548685""
""blur"",""164"",""658839""
""focus"",""166"",""666907""
","""event"",""trial"",""time""
""blur"",""130"",""548654""
""blur"",""164"",""658839""
","""event"",""trial"",""time""
""focus"",""130"",""548656""
""focus"",""166"",""666907""
","""event"",""trial"",""time""
""fullscreenenter"",""0"",""2082""
","""event"",""trial"",""time""
""fullscreenexit"",""130"",""548685""
","420.19999999925494","","","","","","","","49","1,0,0","1","mountain","40","probe-148","0.5065337569376513","0.3693490022793601","0.20146741834574236","1","","","","","","","",""
"","html-keyboard-response","179","711079","0.0-99.0-1.0","""event"",""trial"",""time""
""fullscreenenter"",""0"",""2082""
""blur"",""130"",""548654""
""focus"",""130"",""548656""
""fullscreenexit"",""130"",""548685""
""blur"",""164"",""658839""
""focus"",""166"",""666907""
","""event"",""trial"",""time""
""blur"",""130"",""548654""
""blur"",""164"",""658839""
","""event"",""trial"",""time""
""focus"",""130"",""548656""
""focus"",""166"",""666907""
","""event"",""trial"",""time""
""fullscreenenter"",""0"",""2082""
","""event"",""trial"",""time""
""fullscreenexit"",""130"",""548685""
","null","<p></p>","null","","","","","","","","","","","","","","","","","","","","","","",""
"","do_trial","180","716402","0.0-100.0-0.0","""event"",""trial"",""time""
""fullscreenenter"",""0"",""2082""
""blur"",""130"",""548654""
""focus"",""130"",""548656""
""fullscreenexit"",""130"",""548685""
""blur"",""164"",""658839""
""focus"",""166"",""666907""
","""event"",""trial"",""time""
""blur"",""130"",""548654""
""blur"",""164"",""658839""
","""event"",""trial"",""time""
""focus"",""130"",""548656""
""focus"",""166"",""666907""
","""event"",""trial"",""time""
""fullscreenenter"",""0"",""2082""
","""event"",""trial"",""time""
""fullscreenexit"",""130"",""548685""
","720.5999999996275","","","","","","","","49","0,1,0","1","mountain","41","probe-175","0.30779438623240024","0.3232905535593133","0.2340914816835987","0","","","","","","","",""
"","html-keyboard-response","181","717406","0.0-100.0-1.0","""event"",""trial"",""time""
""fullscreenenter"",""0"",""2082""
""blur"",""130"",""548654""
""focus"",""130"",""548656""
""fullscreenexit"",""130"",""548685""
""blur"",""164"",""658839""
""focus"",""166"",""666907""
","""event"",""trial"",""time""
""blur"",""130"",""548654""
""blur"",""164"",""658839""
","""event"",""trial"",""time""
""focus"",""130"",""548656""
""focus"",""166"",""666907""
","""event"",""trial"",""time""
""fullscreenenter"",""0"",""2082""
","""event"",""trial"",""time""
""fullscreenexit"",""130"",""548685""
","null","<p></p>","null","","","","","","","","","","","","","","","","","","","","","","",""
"","do_trial","182","722605","0.0-101.0-0.0","""event"",""trial"",""time""
""fullscreenenter"",""0"",""2082""
""blur"",""130"",""548654""
""focus"",""130"",""548656""
""fullscreenexit"",""130"",""548685""
""blur"",""164"",""658839""
""focus"",""166"",""666907""
","""event"",""trial"",""time""
""blur"",""130"",""548654""
""blur"",""164"",""658839""
","""event"",""trial"",""time""
""focus"",""130"",""548656""
""focus"",""166"",""666907""
","""event"",""trial"",""time""
""fullscreenenter"",""0"",""2082""
","""event"",""trial"",""time""
""fullscreenexit"",""130"",""548685""
","585.0999999996275","","","","","","","","49","0,0,1","1","mountain","42","probe-89","0.2421314490101757","0.46009438736654185","0.290155711193334","0","","","","","","","",""
"","html-keyboard-response","183","723609","0.0-101.0-1.0","""event"",""trial"",""time""
""fullscreenenter"",""0"",""2082""
""blur"",""130"",""548654""
""focus"",""130"",""548656""
""fullscreenexit"",""130"",""548685""
""blur"",""164"",""658839""
""focus"",""166"",""666907""
","""event"",""trial"",""time""
""blur"",""130"",""548654""
""blur"",""164"",""658839""
","""event"",""trial"",""time""
""focus"",""130"",""548656""
""focus"",""166"",""666907""
","""event"",""trial"",""time""
""fullscreenenter"",""0"",""2082""
","""event"",""trial"",""time""
""fullscreenexit"",""130"",""548685""
","null","<p></p>","null","","","","","","","","","","","","","","","","","","","","","","",""
"","do_trial","184","728600","0.0-102.0-0.0","""event"",""trial"",""time""
""fullscreenenter"",""0"",""2082""
""blur"",""130"",""548654""
""focus"",""130"",""548656""
""fullscreenexit"",""130"",""548685""
""blur"",""164"",""658839""
""focus"",""166"",""666907""
","""event"",""trial"",""time""
""blur"",""130"",""548654""
""blur"",""164"",""658839""
","""event"",""trial"",""time""
""focus"",""130"",""548656""
""focus"",""166"",""666907""
","""event"",""trial"",""time""
""fullscreenenter"",""0"",""2082""
","""event"",""trial"",""time""
""fullscreenexit"",""130"",""548685""
","384.7999999988824","","","","","","","","49","0,0,0","1","mountain","43","probe-203","0.05193642271802894","0.5344540515431749","0.21665713115118101","0","","","","","","","",""
"","html-keyboard-response","185","729607","0.0-102.0-1.0","""event"",""trial"",""time""
""fullscreenenter"",""0"",""2082""
""blur"",""130"",""548654""
""focus"",""130"",""548656""
""fullscreenexit"",""130"",""548685""
""blur"",""164"",""658839""
""focus"",""166"",""666907""
","""event"",""trial"",""time""
""blur"",""130"",""548654""
""blur"",""164"",""658839""
","""event"",""trial"",""time""
""focus"",""130"",""548656""
""focus"",""166"",""666907""
","""event"",""trial"",""time""
""fullscreenenter"",""0"",""2082""
","""event"",""trial"",""time""
""fullscreenexit"",""130"",""548685""
","null","<p></p>","null","","","","","","","","","","","","","","","","","","","","","","",""
"","do_trial","186","734764","0.0-103.0-0.0","""event"",""trial"",""time""
""fullscreenenter"",""0"",""2082""
""blur"",""130"",""548654""
""focus"",""130"",""548656""
""fullscreenexit"",""130"",""548685""
""blur"",""164"",""658839""
""focus"",""166"",""666907""
","""event"",""trial"",""time""
""blur"",""130"",""548654""
""blur"",""164"",""658839""
","""event"",""trial"",""time""
""focus"",""130"",""548656""
""focus"",""166"",""666907""
","""event"",""trial"",""time""
""fullscreenenter"",""0"",""2082""
","""event"",""trial"",""time""
""fullscreenexit"",""130"",""548685""
","539.1999999992549","","","","","","","","49","0,0,0","1","mountain","44","probe-49","0.10651580272296622","0.5983654217394365","0.31393922099603006","0","","","","","","","",""
"","html-keyboard-response","187","735769","0.0-103.0-1.0","""event"",""trial"",""time""
""fullscreenenter"",""0"",""2082""
""blur"",""130"",""548654""
""focus"",""130"",""548656""
""fullscreenexit"",""130"",""548685""
""blur"",""164"",""658839""
""focus"",""166"",""666907""
","""event"",""trial"",""time""
""blur"",""130"",""548654""
""blur"",""164"",""658839""
","""event"",""trial"",""time""
""focus"",""130"",""548656""
""focus"",""166"",""666907""
","""event"",""trial"",""time""
""fullscreenenter"",""0"",""2082""
","""event"",""trial"",""time""
""fullscreenexit"",""130"",""548685""
","null","<p></p>","null","","","","","","","","","","","","","","","","","","","","","","",""
"","do_trial","188","740810","0.0-104.0-0.0","""event"",""trial"",""time""
""fullscreenenter"",""0"",""2082""
""blur"",""130"",""548654""
""focus"",""130"",""548656""
""fullscreenexit"",""130"",""548685""
""blur"",""164"",""658839""
""focus"",""166"",""666907""
","""event"",""trial"",""time""
""blur"",""130"",""548654""
""blur"",""164"",""658839""
","""event"",""trial"",""time""
""focus"",""130"",""548656""
""focus"",""166"",""666907""
","""event"",""trial"",""time""
""fullscreenenter"",""0"",""2082""
","""event"",""trial"",""time""
""fullscreenexit"",""130"",""548685""
","435","","","","","","","","49","0,0,1","1","mountain","45","probe-47","0.13552182383449296","0.5176439524728604","0.27850168452178736","0","","","","","","","",""
"","html-keyboard-response","189","741815","0.0-104.0-1.0","""event"",""trial"",""time""
""fullscreenenter"",""0"",""2082""
""blur"",""130"",""548654""
""focus"",""130"",""548656""
""fullscreenexit"",""130"",""548685""
""blur"",""164"",""658839""
""focus"",""166"",""666907""
","""event"",""trial"",""time""
""blur"",""130"",""548654""
""blur"",""164"",""658839""
","""event"",""trial"",""time""
""focus"",""130"",""548656""
""focus"",""166"",""666907""
","""event"",""trial"",""time""
""fullscreenenter"",""0"",""2082""
","""event"",""trial"",""time""
""fullscreenexit"",""130"",""548685""
","null","<p></p>","null","","","","","","","","","","","","","","","","","","","","","","",""
"","do_trial","190","746795","0.0-105.0-0.0","""event"",""trial"",""time""
""fullscreenenter"",""0"",""2082""
""blur"",""130"",""548654""
""focus"",""130"",""548656""
""fullscreenexit"",""130"",""548685""
""blur"",""164"",""658839""
""focus"",""166"",""666907""
","""event"",""trial"",""time""
""blur"",""130"",""548654""
""blur"",""164"",""658839""
","""event"",""trial"",""time""
""focus"",""130"",""548656""
""focus"",""166"",""666907""
","""event"",""trial"",""time""
""fullscreenenter"",""0"",""2082""
","""event"",""trial"",""time""
""fullscreenexit"",""130"",""548685""
","363.69999999925494","","","","","","","","50","0,0,0","1","mountain","46","probe-218","0.20876834099490338","0.4686347491897386","0.34991667230120194","0","","","","","","","",""
"","html-keyboard-response","191","747801","0.0-105.0-1.0","""event"",""trial"",""time""
""fullscreenenter"",""0"",""2082""
""blur"",""130"",""548654""
""focus"",""130"",""548656""
""fullscreenexit"",""130"",""548685""
""blur"",""164"",""658839""
""focus"",""166"",""666907""
","""event"",""trial"",""time""
""blur"",""130"",""548654""
""blur"",""164"",""658839""
","""event"",""trial"",""time""
""focus"",""130"",""548656""
""focus"",""166"",""666907""
","""event"",""trial"",""time""
""fullscreenenter"",""0"",""2082""
","""event"",""trial"",""time""
""fullscreenexit"",""130"",""548685""
","null","<p></p>","null","","","","","","","","","","","","","","","","","","","","","","",""
"","do_trial","192","752498","0.0-106.0-0.0","""event"",""trial"",""time""
""fullscreenenter"",""0"",""2082""
""blur"",""130"",""548654""
""focus"",""130"",""548656""
""fullscreenexit"",""130"",""548685""
""blur"",""164"",""658839""
""focus"",""166"",""666907""
","""event"",""trial"",""time""
""blur"",""130"",""548654""
""blur"",""164"",""658839""
","""event"",""trial"",""time""
""focus"",""130"",""548656""
""focus"",""166"",""666907""
","""event"",""trial"",""time""
""fullscreenenter"",""0"",""2082""
","""event"",""trial"",""time""
""fullscreenexit"",""130"",""548685""
","33.40000000037253","","","","","","","","50","1,1,0","1","mountain","47","probe-181","0.21717843948011617","0.34500393821390063","0.40165116221142966","1","","","","","","","",""
"","html-keyboard-response","193","753503","0.0-106.0-1.0","""event"",""trial"",""time""
""fullscreenenter"",""0"",""2082""
""blur"",""130"",""548654""
""focus"",""130"",""548656""
""fullscreenexit"",""130"",""548685""
""blur"",""164"",""658839""
""focus"",""166"",""666907""
","""event"",""trial"",""time""
""blur"",""130"",""548654""
""blur"",""164"",""658839""
","""event"",""trial"",""time""
""focus"",""130"",""548656""
""focus"",""166"",""666907""
","""event"",""trial"",""time""
""fullscreenenter"",""0"",""2082""
","""event"",""trial"",""time""
""fullscreenexit"",""130"",""548685""
","null","<p></p>","null","","","","","","","","","","","","","","","","","","","","","","",""
"","do_trial","194","758375","0.0-107.0-0.0","""event"",""trial"",""time""
""fullscreenenter"",""0"",""2082""
""blur"",""130"",""548654""
""focus"",""130"",""548656""
""fullscreenexit"",""130"",""548685""
""blur"",""164"",""658839""
""focus"",""166"",""666907""
","""event"",""trial"",""time""
""blur"",""130"",""548654""
""blur"",""164"",""658839""
","""event"",""trial"",""time""
""focus"",""130"",""548656""
""focus"",""166"",""666907""
","""event"",""trial"",""time""
""fullscreenenter"",""0"",""2082""
","""event"",""trial"",""time""
""fullscreenexit"",""130"",""548685""
","273.2999999988824","","","","","","","","50","1,0,0","1","mountain","48","probe-117","0.20930624293964123","0.38501380803187796","0.42073850706335975","0","","","","","","","",""
"","html-keyboard-response","195","759379","0.0-107.0-1.0","""event"",""trial"",""time""
""fullscreenenter"",""0"",""2082""
""blur"",""130"",""548654""
""focus"",""130"",""548656""
""fullscreenexit"",""130"",""548685""
""blur"",""164"",""658839""
""focus"",""166"",""666907""
","""event"",""trial"",""time""
""blur"",""130"",""548654""
""blur"",""164"",""658839""
","""event"",""trial"",""time""
""focus"",""130"",""548656""
""focus"",""166"",""666907""
","""event"",""trial"",""time""
""fullscreenenter"",""0"",""2082""
","""event"",""trial"",""time""
""fullscreenexit"",""130"",""548685""
