"success","trial_type","trial_index","time_elapsed","internal_node_id","interactions","blur_events","focus_events","fullscreenenter_events","fullscreenexit_events","rt","stimulus","key_press","subject_id","participant_id","age","gender","prompt","response","choice_outcomes","context_n","context_img_id","trial_n","probe_img_id","pR_red","pR_white","pR_black","outcome","contextArray_ind","validImageProbes","invalidImageProbes","pRew_Red","pRew_White","pRew_Black","availableForMemProbe","choice_blocks"
"true","fullscreen","0","12212","0.0-0.0","""event"",""trial"",""time""
""fullscreenenter"",""0"",""11239""
","
","
","""event"",""trial"",""time""
""fullscreenenter"",""0"",""11239""
","
","","","","","","","","","","","","","","","","","","","","","","","","","",""
"","pavlovia","1","12216","0.0-1.0","""event"",""trial"",""time""
""fullscreenenter"",""0"",""11239""
","
","
","""event"",""trial"",""time""
""fullscreenenter"",""0"",""11239""
","
","","","","","","","","","","","","","","","","","","","","","","","","","",""
"","instruc1","2","57371","0.0-2.0","""event"",""trial"",""time""
""fullscreenenter"",""0"",""11239""
","
","
","""event"",""trial"",""time""
""fullscreenenter"",""0"",""11239""
","
","null","run_exp/static/audio/clip_1_welcome.m4a","null","334","42","20","Female","<div class='center'><p>Welcome! This is the first part of the study. It will last ~30 minutes. In part 1 and part 2 of the study, you are the head captain of a pirate ship traveling around the world to different islands. You will play a few different games throughout these two parts. Here is an overview of them:</p><br><p>Part 1 (today)</p><p>1. Instructions, practice game, and quiz</p><p>2. Pick a pirate game on 6 different islands</p><br><p>Part 2 (tomorrow)</p><p>3. Pick a pirate game and memory game</p><p>4. Where did you see this ship? </p></div>","","","","","","","","","","","","","","","","","",""
"","html-keyboard-response","3","58317","0.0-3.0","""event"",""trial"",""time""
""fullscreenenter"",""0"",""11239""
","
","
","""event"",""trial"",""time""
""fullscreenenter"",""0"",""11239""
","
","944.5999999940395","<div class='center'><p>Welcome! This is the first part of the study. It will last ~30 minutes. In part 1 and part 2 of the study, you are the head captain of a pirate ship traveling around the world to different islands. You will play a few different games throughout these two parts. Here is an overview of them:</p><br><p>Part 1 (today)</p><p>1. Instructions, practice game, and quiz</p><p>2. Pick a pirate game on 6 different islands</p><br><p>Part 2 (tomorrow)</p><p>3. Pick a pirate game and memory game</p><p>4. Where did you see this ship? </p><p><b>[Press the space bar to continue]</b></p></div>","32","","","","","","","","","","","","","","","","","","","","","","",""
"","instruc2","4","63639","0.0-4.0","""event"",""trial"",""time""
""fullscreenenter"",""0"",""11239""
","
","
","""event"",""trial"",""time""
""fullscreenenter"",""0"",""11239""
","
","null","run_exp/static/audio/clip_2_different_places.m4a","null","","","","","<div class='center'><p>Today, you’ll visit these 6 islands on your journey. You'll be able to see these islands from your ship.</p><p><img src='run_exp/static/images/contexts/all_contexts.png' height='500'></p></div>","","","","","","","","","","","","","","","","","",""
"","html-keyboard-response","5","66400","0.0-5.0","""event"",""trial"",""time""
""fullscreenenter"",""0"",""11239""
","
","
","""event"",""trial"",""time""
""fullscreenenter"",""0"",""11239""
","
","2759.5999999940395","<div class='center'><p>Today, you’ll visit these 6 islands on your journey. You'll be able to see these islands from your ship.</p><p><img src='run_exp/static/images/contexts/all_contexts.png' height='500'></p><p><b>[Press the space bar to continue]</b></p></div>","32","","","","","","","","","","","","","","","","","","","","","","",""
"","instruc3","6","76108","0.0-6.0","""event"",""trial"",""time""
""fullscreenenter"",""0"",""11239""
","
","
","""event"",""trial"",""time""
""fullscreenenter"",""0"",""11239""
","
","null","run_exp/static/audio/clip_3_goal_of_game_1.m4a","null","","","","","<div class='center'><p> The pirates on your ship will rob other ships as they leave the island.</p> These ships have just sold their goods to the islanders, so they will be filled with lots and lots of gold.</p><p><img src='run_exp/static/images/tutorial/ship_center.png' height='400'></p></div>","","","","","","","","","","","","","","","","","",""
"","html-keyboard-response","7","77458","0.0-7.0","""event"",""trial"",""time""
""fullscreenenter"",""0"",""11239""
","
","
","""event"",""trial"",""time""
""fullscreenenter"",""0"",""11239""
","
","1348","<div class='center'><p> The pirates on your ship will rob other ships as they leave the island.</p> These ships have just sold their goods to the islanders, so they will be filled with lots and lots of gold.</p><p><img src='run_exp/static/images/tutorial/ship_center.png' height='400'></p><p><b>[Press the space bar to continue]</b></p></div>","32","","","","","","","","","","","","","","","","","","","","","","",""
"","instruc4","8","105458","0.0-8.0","""event"",""trial"",""time""
""fullscreenenter"",""0"",""11239""
","
","
","""event"",""trial"",""time""
""fullscreenenter"",""0"",""11239""
","
","null","run_exp/static/audio/clip_4_goal_of_game_2.m4a","null","","","","","<div class='center'><p>As the head captain, you do not have to rob any ships yourself. Another pirate will be doing the robbing for you. First, you will choose a pirate to rob the next ship.</p><p><img src='run_exp/static/images/tutorial/pirates_all_crop.png' height='200'></p><p>Then, you'll see if the pirate successfully robbed the ship of their gold. If they were successful, then you'll get a stack of gold coins like this:</p><p><img src='run_exp/static/images/tutorial/reward.png' height='150'></p><p> If they were <b>not</b> successful, then you'll get no gold coins, and you'll see a big red x like this: </p><p><img src='run_exp/static/images/tutorial/reward_no.png' height='150'></p><p> How much bonus money you make is based on how many gold coins you collect.</p><div>","","","","","","","","","","","","","","","","","",""
"","html-keyboard-response","9","116315","0.0-9.0","""event"",""trial"",""time""
""fullscreenenter"",""0"",""11239""
","
","
","""event"",""trial"",""time""
""fullscreenenter"",""0"",""11239""
","
","10855","<div class='center'><p>As the head captain, you do not have to rob any ships yourself. Another pirate will be doing the robbing for you. First, you will choose a pirate to rob the next ship.</p><p><img src='run_exp/static/images/tutorial/pirates_all_crop.png' height='200'></p><p>Then, you'll see if the pirate successfully robbed the ship of their gold. If they were successful, then you'll get a stack of gold coins like this:</p><p><img src='run_exp/static/images/tutorial/reward.png' height='150'></p><p> If they were <b>not</b> successful, then you'll get no gold coins, and you'll see a big red x like this: </p><p><img src='run_exp/static/images/tutorial/reward_no.png' height='150'></p><p> How much bonus money you make is based on how many gold coins you collect.</p<p><b>[Press the space bar to continue]</b></p></div>","32","","","","","","","","","","","","","","","","","","","","","","",""
"","instruc5","10","162698","0.0-10.0","""event"",""trial"",""time""
""fullscreenenter"",""0"",""11239""
","
","
","""event"",""trial"",""time""
""fullscreenenter"",""0"",""11239""
","
","46381.59999999404","run_exp/static/audio/clip_5_probabilistic.m4a","49","","","","","<div class='center'><p>Even the most skilled pirate can not rob EVERY ship.</p><p> Some ships will have very strong protections against pirate attacks.</p><p> Blue beard, here, is very, very good at robbing ships, but he won't be successful every time he tries to rob one.</p><p> You can press the <b>‘1’</b> key on the keyboard to choose him.</p><p> Try choosing him 10 times to see how often he succeeds at robbing a ship. </p><p><img src='run_exp/static/images/tutorial/blue.png' height='500'></p></div>","","","","","","","","","","","","","","","","","",""
"","html-keyboard-response","11","164202","0.0-11.0","""event"",""trial"",""time""
""fullscreenenter"",""0"",""11239""
","
","
","""event"",""trial"",""time""
""fullscreenenter"",""0"",""11239""
","
","null","<div class='center'><p><img src='run_exp/static/images/tutorial/blue_win.png' height='500'></p></div>","null","","","","","","","","","","","","","","","","","","","","","","",""
"","html-keyboard-response","12","166313","0.0-12.0","""event"",""trial"",""time""
""fullscreenenter"",""0"",""11239""
","
","
","""event"",""trial"",""time""
""fullscreenenter"",""0"",""11239""
","
","2110","<div class='center'><img src='run_exp/static/images/tutorial/blue.png' height='500'></p></div>","49","","","","","","","","","","","","","","","","","","","","","","",""
"","html-keyboard-response","13","167816","0.0-13.0","""event"",""trial"",""time""
""fullscreenenter"",""0"",""11239""
","
","
","""event"",""trial"",""time""
""fullscreenenter"",""0"",""11239""
","
","null","<div class='center'><p><img src='run_exp/static/images/tutorial/blue_win.png' height='500'></p></div>","null","","","","","","","","","","","","","","","","","","","","","","",""
"","html-keyboard-response","14","168322","0.0-14.0","""event"",""trial"",""time""
""fullscreenenter"",""0"",""11239""
","
","
","""event"",""trial"",""time""
""fullscreenenter"",""0"",""11239""
","
","505.59999999403954","<div class='center'><img src='run_exp/static/images/tutorial/blue.png' height='500'></p></div>","49","","","","","","","","","","","","","","","","","","","","","","",""
"","html-keyboard-response","15","169828","0.0-15.0","""event"",""trial"",""time""
""fullscreenenter"",""0"",""11239""
","
","
","""event"",""trial"",""time""
""fullscreenenter"",""0"",""11239""
","
","null","<div class='center'><p><img src='run_exp/static/images/tutorial/blue_win.png' height='500'></p></div>","null","","","","","","","","","","","","","","","","","","","","","","",""
"","html-keyboard-response","16","170141","0.0-16.0","""event"",""trial"",""time""
""fullscreenenter"",""0"",""11239""
","
","
","""event"",""trial"",""time""
""fullscreenenter"",""0"",""11239""
","
","312.19999998807907","<div class='center'><img src='run_exp/static/images/tutorial/blue.png' height='500'></p></div>","49","","","","","","","","","","","","","","","","","","","","","","",""
"","html-keyboard-response","17","171647","0.0-17.0","""event"",""trial"",""time""
""fullscreenenter"",""0"",""11239""
","
","
","""event"",""trial"",""time""
""fullscreenenter"",""0"",""11239""
","
","null","<div class='center'><p><img src='run_exp/static/images/tutorial/blue_no_win.png' height='500'></p></div>","null","","","","","","","","","","","","","","","","","","","","","","",""
"","html-keyboard-response","18","172646","0.0-18.0","""event"",""trial"",""time""
""fullscreenenter"",""0"",""11239""
","
","
","""event"",""trial"",""time""
""fullscreenenter"",""0"",""11239""
","
","998.1999999880791","<div class='center'><img src='run_exp/static/images/tutorial/blue.png' height='500'></p></div>","49","","","","","","","","","","","","","","","","","","","","","","",""
"","html-keyboard-response","19","174152","0.0-19.0","""event"",""trial"",""time""
""fullscreenenter"",""0"",""11239""
","
","
","""event"",""trial"",""time""
""fullscreenenter"",""0"",""11239""
","
","null","<div class='center'><p><img src='run_exp/static/images/tutorial/blue_win.png' height='500'></p></div>","null","","","","","","","","","","","","","","","","","","","","","","",""
"","html-keyboard-response","20","175010","0.0-20.0","""event"",""trial"",""time""
""fullscreenenter"",""0"",""11239""
","
","
","""event"",""trial"",""time""
""fullscreenenter"",""0"",""11239""
","
","856.6999999880791","<div class='center'><img src='run_exp/static/images/tutorial/blue.png' height='500'></p></div>","49","","","","","","","","","","","","","","","","","","","","","","",""
"","html-keyboard-response","21","176516","0.0-21.0","""event"",""trial"",""time""
""fullscreenenter"",""0"",""11239""
","
","
","""event"",""trial"",""time""
""fullscreenenter"",""0"",""11239""
","
","null","<div class='center'><p><img src='run_exp/static/images/tutorial/blue_win.png' height='500'></p></div>","null","","","","","","","","","","","","","","","","","","","","","","",""
"","html-keyboard-response","22","177314","0.0-22.0","""event"",""trial"",""time""
""fullscreenenter"",""0"",""11239""
","
","
","""event"",""trial"",""time""
""fullscreenenter"",""0"",""11239""
","
","796.5999999940395","<div class='center'><img src='run_exp/static/images/tutorial/blue.png' height='500'></p></div>","49","","","","","","","","","","","","","","","","","","","","","","",""
"","html-keyboard-response","23","178816","0.0-23.0","""event"",""trial"",""time""
""fullscreenenter"",""0"",""11239""
","
","
","""event"",""trial"",""time""
""fullscreenenter"",""0"",""11239""
","
","null","<div class='center'><p><img src='run_exp/static/images/tutorial/blue_win.png' height='500'></p></div>","null","","","","","","","","","","","","","","","","","","","","","","",""
"","html-keyboard-response","24","179447","0.0-24.0","""event"",""trial"",""time""
""fullscreenenter"",""0"",""11239""
","
","
","""event"",""trial"",""time""
""fullscreenenter"",""0"",""11239""
","
","630.1999999880791","<div class='center'><img src='run_exp/static/images/tutorial/blue.png' height='500'></p></div>","49","","","","","","","","","","","","","","","","","","","","","","",""
"","html-keyboard-response","25","180953","0.0-25.0","""event"",""trial"",""time""
""fullscreenenter"",""0"",""11239""
","
","
","""event"",""trial"",""time""
""fullscreenenter"",""0"",""11239""
","
","null","<div class='center'><p><img src='run_exp/static/images/tutorial/blue_no_win.png' height='500'></p></div>","null","","","","","","","","","","","","","","","","","","","","","","",""
"","html-keyboard-response","26","181606","0.0-26.0","""event"",""trial"",""time""
""fullscreenenter"",""0"",""11239""
","
","
","""event"",""trial"",""time""
""fullscreenenter"",""0"",""11239""
","
","651.9000000059605","<div class='center'><img src='run_exp/static/images/tutorial/blue.png' height='500'></p></div>","49","","","","","","","","","","","","","","","","","","","","","","",""
"","html-keyboard-response","27","183109","0.0-27.0","""event"",""trial"",""time""
""fullscreenenter"",""0"",""11239""
","
","
","""event"",""trial"",""time""
""fullscreenenter"",""0"",""11239""
","
","null","<div class='center'><p><img src='run_exp/static/images/tutorial/blue_win.png' height='500'></p></div>","null","","","","","","","","","","","","","","","","","","","","","","",""
"","html-keyboard-response","28","183680","0.0-28.0","""event"",""trial"",""time""
""fullscreenenter"",""0"",""11239""
","
","
","""event"",""trial"",""time""
""fullscreenenter"",""0"",""11239""
","
","570.5999999940395","<div class='center'><img src='run_exp/static/images/tutorial/blue.png' height='500'></p></div>","49","","","","","","","","","","","","","","","","","","","","","","",""
"","html-keyboard-response","29","185185","0.0-29.0","""event"",""trial"",""time""
""fullscreenenter"",""0"",""11239""
","
","
","""event"",""trial"",""time""
""fullscreenenter"",""0"",""11239""
","
","null","<div class='center'><p><img src='run_exp/static/images/tutorial/blue_win.png' height='500'></p></div>","null","","","","","","","","","","","","","","","","","","","","","","",""
"","instruc6","30","190623","0.0-30.0","""event"",""trial"",""time""
""fullscreenenter"",""0"",""11239""
","
","
","""event"",""trial"",""time""
""fullscreenenter"",""0"",""11239""
","
","null","run_exp/static/audio/clip_6_blue_beard_outcome.m4a","null","","","","","<div class='center'><p> See, he succeeded in robbing the ships most of the time but not every time. </p></div>","","","","","","","","","","","","","","","","","",""
"","html-keyboard-response","31","191817","0.0-31.0","""event"",""trial"",""time""
""fullscreenenter"",""0"",""11239""
","
","
","""event"",""trial"",""time""
""fullscreenenter"",""0"",""11239""
","
","1194","<div class='center'><p> See, he succeeded in robbing the ships most of the time but not every time. </p><p><b>[Press the space bar to continue]</b></p></div>","32","","","","","","","","","","","","","","","","","","","","","","",""
"","audio-keyboard-response","32","213548","0.0-32.0","""event"",""trial"",""time""
""fullscreenenter"",""0"",""11239""
","
","
","""event"",""trial"",""time""
""fullscreenenter"",""0"",""11239""
","
","21729.69999998808","run_exp/static/audio/clip_7_pick_pirate.m4a","51","","","","","","","","","","","","","","","","","","","","","","",""
"","audio-keyboard-response","33","218399","0.0-33.0-0.0","""event"",""trial"",""time""
""fullscreenenter"",""0"",""11239""
","
","
","""event"",""trial"",""time""
""fullscreenenter"",""0"",""11239""
","
","4849.699999988079","run_exp/static/audio/clip_8_chosen_pirate_win.m4a","32","","","","","","","","","","","","","","","","","","","","","","",""
"","audio-keyboard-response","34","225459","0.0-33.0-1.0","""event"",""trial"",""time""
""fullscreenenter"",""0"",""11239""
","
","
","""event"",""trial"",""time""
""fullscreenenter"",""0"",""11239""
","
","7059.5","run_exp/static/audio/clip_9_pick_a_pirate_again.m4a","51","","","","","","","","","","","","","","","","","","","","","","",""
"","audio-keyboard-response","35","230566","0.0-34.0-0.0","""event"",""trial"",""time""
""fullscreenenter"",""0"",""11239""
","
","
","""event"",""trial"",""time""
""fullscreenenter"",""0"",""11239""
","
","5105.300000011921","run_exp/static/audio/clip_10_chosen_pirate_loss.m4a","32","","","","","","","","","","","","","","","","","","","","","","",""
"","instruc9","36","236064","0.0-35.0-0.0","""event"",""trial"",""time""
""fullscreenenter"",""0"",""11239""
","
","
","""event"",""trial"",""time""
""fullscreenenter"",""0"",""11239""
","
","null","run_exp/static/audio/clip_11_time_out.m4a","null","","","","","<div class='center'><p>If you don’t make your choice fast enough, you’ll have to wait a few seconds before you can make another one. </p><p><img src='run_exp/static/images/miscellaneous/hurry_up.png' height='500'></p></div>","","","","","","","","","","","","","","","","","",""
"","html-keyboard-response","37","241718","0.0-35.0-1.0","""event"",""trial"",""time""
""fullscreenenter"",""0"",""11239""
","
","
","""event"",""trial"",""time""
""fullscreenenter"",""0"",""11239""
","
","5652.699999988079","<div class='center'><p>If you don’t make your choice fast enough, you’ll have to wait a few seconds before you can make another one. </p><p><img src='run_exp/static/images/miscellaneous/hurry_up.png' height='500'></p><p><b>[Press the space bar to continue]</b></p></div>","32","","","","","","","","","","","","","","","","","","","","","","",""
"","instruc10","38","280808","0.0-35.0-2.0","""event"",""trial"",""time""
""fullscreenenter"",""0"",""11239""
","
","
","""event"",""trial"",""time""
""fullscreenenter"",""0"",""11239""
","
","null","run_exp/static/audio/clip_12_probe.m4a","null","","","","","<div class='center'><p>Once you've chosen a pirate, you’ll be shown the ship they are robbing. You will never rob the same ship twice. Ships can be told apart from one another by the image on them. These are the goods that they sell. See, this ship has a travel mug on it. </p><p> You’ll have to remember which island you saw each ship on. You will win more gold coins and hence more bonus money if you remember correctly! To help you remember, you can imagine a story. For example, here, you could imagine a mug full of water in the desert. Or, as another example, if on the forest island, your pirate robbed a ship with an apple on it, you could imagine an apple falling from a tree in the forest. </p><p><img src='run_exp/static/images/tutorial/example_probe.png' height='500'></p></div>","","","","","","","","","","","","","","","","","",""
"","html-keyboard-response","39","338100","0.0-35.0-3.0","""event"",""trial"",""time""
""fullscreenenter"",""0"",""11239""
","
","
","""event"",""trial"",""time""
""fullscreenenter"",""0"",""11239""
","
","57290.59999999404","<div class='center'><p>Once you've chosen a pirate, you’ll be shown the ship they are robbing. You will never rob the same ship twice. Ships can be told apart from one another by the image on them. These are the goods that they sell. See, this ship has a travel mug on it. </p><p> You’ll have to remember which island you saw each ship on. You will win more gold coins and hence more bonus money if you remember correctly! To help you remember, you can imagine a story. For example, here, you could imagine a mug full of water in the desert. Or, as another example, if on the forest island, your pirate robbed a ship with an apple on it, you could imagine an apple falling from a tree in the forest. </p><p><img src='run_exp/static/images/tutorial/example_probe.png' height='500'></p><p><b>[Press the space bar to continue]</b></p></div>","32","","","","","","","","","","","","","","","","","","","","","","",""
"","instruc11","40","354553","0.0-35.0-4.0","""event"",""trial"",""time""
""fullscreenenter"",""0"",""11239""
","
","
","""event"",""trial"",""time""
""fullscreenenter"",""0"",""11239""
","
","null","run_exp/static/audio/clip_13_changepoint.m4a","null","","","","","<div class='center'><p>How successful a pirate is at robbing ships will depend on the island you’re on.</p><p> A pirate may have visited this island many times before and gained a lot of practice robbing ships there.</p><p>So, they’re more likely to be successful than a pirate who has never visited the island before.</p></div>","","","","","","","","","","","","","","","","","",""
"","html-keyboard-response","41","356060","0.0-35.0-5.0","""event"",""trial"",""time""
""fullscreenenter"",""0"",""11239""
","
","
","""event"",""trial"",""time""
""fullscreenenter"",""0"",""11239""
","
","1506.2000000178814","<div class='center'><p>How successful a pirate is at robbing ships will depend on the island you’re on.</p><p> A pirate may have visited this island many times before and gained a lot of practice robbing ships there.</p><p>So, they’re more likely to be successful than a pirate who has never visited the island before.</p><p><b>[Press the space bar to continue]</b></p></div>","32","","","","","","","","","","","","","","","","","","","","","","",""
"","instruc12","42","397162","0.0-35.0-6.0","""event"",""trial"",""time""
""fullscreenenter"",""0"",""11239""
","
","
","""event"",""trial"",""time""
""fullscreenenter"",""0"",""11239""
","
","null","run_exp/static/audio/clip_14_drift.m4a","null","","","","","<div class='center'><p>How successful a pirate is at robbing ships can also change over the time spent on the island. </p><p> Ships may hear from islanders about the pirates coming and will improve their protections against the attack. This may make it harder to rob them.</p><p> Ships may also become lazy and weaken the strength of their protections. This may make it easier to rob them.</p><br><p>Things are always changing on the high seas! So, try your best to pay attention!</p><p><img src='run_exp/static/images/tutorial/contingency.png' height='500'></p></div>","","","","","","","","","","","","","","","","","",""
"","html-keyboard-response","43","417288","0.0-35.0-7.0","""event"",""trial"",""time""
""fullscreenenter"",""0"",""11239""
","
","
","""event"",""trial"",""time""
""fullscreenenter"",""0"",""11239""
","
","20124.5","<div class='center'><p>How successful a pirate is at robbing ships can also change over the time spent on the island. </p><p> Ships may hear from islanders about the pirates coming and will improve their protections against the attack. This may make it harder to rob them.</p><p> Ships may also become lazy and weaken the strength of their protections. This may make it easier to rob them.</p><br><p>Things are always changing on the high seas! So, try your best to pay attention!</p><p><img src='run_exp/static/images/tutorial/contingency.png' height='500'></p><p><b>[Press the space bar to continue]</b></p></div>","32","","","","","","","","","","","","","","","","","","","","","","",""
"","instruc13","44","452526","0.0-35.0-8.0","""event"",""trial"",""time""
""fullscreenenter"",""0"",""11239""
","
","
","""event"",""trial"",""time""
""fullscreenenter"",""0"",""11239""
","
","null","run_exp/static/audio/clip_15_summary.m4a","null","","","","","<div class='center'><p>Let's go over the instructions quickly again. You have two important things to do: </p><b><p> 1. Pick the pirate who is the best at robbing ships on the current island. </p></b><b><p> 2. Remember on which island a ship was robbed.</p> </b><p>The amount of bonus money you can win depends on both.</p><p><br><p>Let’s try a practice game. The game will start by showing you the pirates. First, pick a pirate using the <b> 1, 2, 3 </b> keys on your keyboard. When you are shown a ship, try to remember which island you’re on by making up a story.</p><p>This is just a practice game, so you’re not playing for money. </p><p> Good luck! This game will be very difficult but try your best!</p></div>","","","","","","","","","","","","","","","","","",""
"","html-keyboard-response","45","485037","0.0-35.0-9.0","""event"",""trial"",""time""
""fullscreenenter"",""0"",""11239""
","
","
","""event"",""trial"",""time""
""fullscreenenter"",""0"",""11239""
","
","32510.90000000596","<div class='center'><p>Let's go over the instructions quickly again. You have two important things to do: </p><b><p> 1. Pick the pirate who is the best at robbing ships on the current island. </p></b><b><p> 2. Remember on which island a ship was robbed.</p> </b><p>The amount of bonus money you can win depends on both.</p><p><br><p>Let’s try a practice game. The game will start by showing you the pirates. First, pick a pirate using the <b> 1, 2, 3 </b> keys on your keyboard. When you are shown a ship, try to remember which island you’re on by making up a story.</p><p>This is just a practice game, so you’re not playing for money. </p><p> Good luck! This game will be very difficult but try your best!</p><p><b>[Press the space bar to continue]</b></p></div>","32","","","","","","","","","","","","","","","","","","","","","","",""
"","do_welcome","46","489043","0.0-35.0-10.0","""event"",""trial"",""time""
""fullscreenenter"",""0"",""11239""
","
","
","""event"",""trial"",""time""
""fullscreenenter"",""0"",""11239""
","
","null","","","","","","","","null","","","","","","","","","","","","","","","","",""
"","do_trial","47","495998","0.0-35.0-11.0","""event"",""trial"",""time""
""fullscreenenter"",""0"",""11239""
","
","
","""event"",""trial"",""time""
""fullscreenenter"",""0"",""11239""
","
","2448.9000000059605","","","","","","","","51","1,0,0","","","","","","","","","","","","","","","",""
"","html-keyboard-response","48","497002","0.0-36.0-0.0","""event"",""trial"",""time""
""fullscreenenter"",""0"",""11239""
","
","
","""event"",""trial"",""time""
""fullscreenenter"",""0"",""11239""
","
","null","<p></p>","null","","","","","","","","","","","","","","","","","","","","","","",""
"","do_trial","49","503016","0.0-36.0-1.0","""event"",""trial"",""time""
""fullscreenenter"",""0"",""11239""
","
","
","""event"",""trial"",""time""
""fullscreenenter"",""0"",""11239""
","
","null","","","","","","","","null","1,1,0","","","","","","","","","","","","","","","",""
"","html-keyboard-response","50","504022","0.0-37.0-0.0","""event"",""trial"",""time""
""fullscreenenter"",""0"",""11239""
","
","
","""event"",""trial"",""time""
""fullscreenenter"",""0"",""11239""
","
","null","<p></p>","null","","","","","","","","","","","","","","","","","","","","","","",""
"","do_trial","51","511343","0.0-37.0-1.0","""event"",""trial"",""time""
""fullscreenenter"",""0"",""11239""
","
","
","""event"",""trial"",""time""
""fullscreenenter"",""0"",""11239""
","
","2810.0999999940395","","","","","","","","51","1,1,0","","","","","","","","","","","","","","","",""
"","html-keyboard-response","52","512346","0.0-38.0-0.0","""event"",""trial"",""time""
""fullscreenenter"",""0"",""11239""
","
","
","""event"",""trial"",""time""
""fullscreenenter"",""0"",""11239""
","
","null","<p></p>","null","","","","","","","","","","","","","","","","","","","","","","",""
"","do_trial","53","519103","0.0-38.0-1.0","""event"",""trial"",""time""
""fullscreenenter"",""0"",""11239""
","
","
","""event"",""trial"",""time""
""fullscreenenter"",""0"",""11239""
","
","2250","","","","","","","","51","1,0,1","","","","","","","","","","","","","","","",""
"","html-keyboard-response","54","520109","0.0-39.0-0.0","""event"",""trial"",""time""
""fullscreenenter"",""0"",""11239""
","
","
","""event"",""trial"",""time""
""fullscreenenter"",""0"",""11239""
","
","null","<p></p>","null","","","","","","","","","","","","","","","","","","","","","","",""
"","do_trial","55","525576","0.0-39.0-1.0","""event"",""trial"",""time""
""fullscreenenter"",""0"",""11239""
","
","
","""event"",""trial"",""time""
""fullscreenenter"",""0"",""11239""
","
","956.3000000119209","","","","","","","","51","0,1,0","","","","","","","","","","","","","","","",""
"","html-keyboard-response","56","526582","0.0-40.0-0.0","""event"",""trial"",""time""
""fullscreenenter"",""0"",""11239""
","
","
","""event"",""trial"",""time""
""fullscreenenter"",""0"",""11239""
","
","null","<p></p>","null","","","","","","","","","","","","","","","","","","","","","","",""
"","do_trial","57","532136","0.0-40.0-1.0","""event"",""trial"",""time""
""fullscreenenter"",""0"",""11239""
","
","
","""event"",""trial"",""time""
""fullscreenenter"",""0"",""11239""
","
","1042.699999988079","","","","","","","","50","1,0,0","","","","","","","","","","","","","","","",""
"","do_bye","58","533644","0.0-41.0-0.0","""event"",""trial"",""time""
""fullscreenenter"",""0"",""11239""
","
","
","""event"",""trial"",""time""
""fullscreenenter"",""0"",""11239""
","
","null","","","","","","","","null","","","","","","","","","","","","","","","","",""
"","do_travel","59","542649","0.0-41.0-1.0","""event"",""trial"",""time""
""fullscreenenter"",""0"",""11239""
","
","
","""event"",""trial"",""time""
""fullscreenenter"",""0"",""11239""
","
","null","","","","","","","","null","","","","","","","","","","","","","","","","",""
"","do_welcome","60","546658","0.0-41.0-2.0","""event"",""trial"",""time""
""fullscreenenter"",""0"",""11239""
","
","
","""event"",""trial"",""time""
""fullscreenenter"",""0"",""11239""
","
","null","","","","","","","","null","","","","","","","","","","","","","","","","",""
"","do_trial","61","552850","0.0-41.0-3.0","""event"",""trial"",""time""
""fullscreenenter"",""0"",""11239""
","
","
","""event"",""trial"",""time""
""fullscreenenter"",""0"",""11239""
","
","1681.199999988079","","","","","","","","49","1,0,0","","","","","","","","","","","","","","","",""
"","html-keyboard-response","62","553856","0.0-42.0-0.0","""event"",""trial"",""time""
""fullscreenenter"",""0"",""11239""
","
","
","""event"",""trial"",""time""
""fullscreenenter"",""0"",""11239""
","
","null","<p></p>","null","","","","","","","","","","","","","","","","","","","","","","",""
"","do_trial","63","559872","0.0-42.0-1.0","""event"",""trial"",""time""
""fullscreenenter"",""0"",""11239""
","
","
","""event"",""trial"",""time""
""fullscreenenter"",""0"",""11239""
","
","null","","","","","","","","null","1,0,1","","","","","","","","","","","","","","","",""
"","html-keyboard-response","64","560878","0.0-43.0-0.0","""event"",""trial"",""time""
""fullscreenenter"",""0"",""11239""
","
","
","""event"",""trial"",""time""
""fullscreenenter"",""0"",""11239""
","
","null","<p></p>","null","","","","","","","","","","","","","","","","","","","","","","",""
"","do_trial","65","565880","0.0-43.0-1.0","""event"",""trial"",""time""
""fullscreenenter"",""0"",""11239""
","
","
","""event"",""trial"",""time""
""fullscreenenter"",""0"",""11239""
","
","491.09999999403954","","","","","","","","49","1,0,1","","","","","","","","","","","","","","","",""
"","html-keyboard-response","66","566887","0.0-44.0-0.0","""event"",""trial"",""time""
""fullscreenenter"",""0"",""11239""
","
","
","""event"",""trial"",""time""
""fullscreenenter"",""0"",""11239""
","
","null","<p></p>","null","","","","","","","","","","","","","","","","","","","","","","",""
"","do_trial","67","572747","0.0-44.0-1.0","""event"",""trial"",""time""
""fullscreenenter"",""0"",""11239""
","
","
","""event"",""trial"",""time""
""fullscreenenter"",""0"",""11239""
","
","1349.300000011921","","","","","","","","49","1,1,0","","","","","","","","","","","","","","","",""
"","html-keyboard-response","68","573752","0.0-45.0-0.0","""event"",""trial"",""time""
""fullscreenenter"",""0"",""11239""
","
","
","""event"",""trial"",""time""
""fullscreenenter"",""0"",""11239""
","
","null","<p></p>","null","","","","","","","","","","","","","","","","","","","","","","",""
"","do_trial","69","579881","0.0-45.0-1.0","""event"",""trial"",""time""
""fullscreenenter"",""0"",""11239""
","
","
","""event"",""trial"",""time""
""fullscreenenter"",""0"",""11239""
","
","1618.6000000238419","","","","","","","","49","0,0,1","","","","","","","","","","","","","","","",""
"","html-keyboard-response","70","580888","0.0-46.0-0.0","""event"",""trial"",""time""
""fullscreenenter"",""0"",""11239""
","
","
","""event"",""trial"",""time""
""fullscreenenter"",""0"",""11239""
","
","null","<p></p>","null","","","","","","","","","","","","","","","","","","","","","","",""
"","do_trial","71","588098","0.0-46.0-1.0","""event"",""trial"",""time""
""fullscreenenter"",""0"",""11239""
","
","
","""event"",""trial"",""time""
""fullscreenenter"",""0"",""11239""
","
","2704.4000000059605","","","","","","","","51","1,0,1","","","","","","","","","","","","","","","",""
"","html-keyboard-response","72","590042","0.0-47.0-0.0","""event"",""trial"",""time""
""fullscreenenter"",""0"",""11239""
","
","
","""event"",""trial"",""time""
""fullscreenenter"",""0"",""11239""
","
","1942.9000000059605","<div class='center'><p><img src='run_exp/static/images/tutorial/prac_best_pirate.png'  height='500'></p></div>","49","","","","","","","","","","","","","","","","","","","","","","",""
"","html-keyboard-response","73","592947","0.0-48.0-0.0","""event"",""trial"",""time""
""fullscreenenter"",""0"",""11239""
","
","
","""event"",""trial"",""time""
""fullscreenenter"",""0"",""11239""
","
","2903.5","<div class='center'><p>That's correct! Red beard was the best.</p><p><b>[Press the space bar to continue]</b></p></div>","32","","","","","","","","","","","","","","","","","","","","","","",""
"","html-keyboard-response","74","597467","0.0-48.0-1.0","""event"",""trial"",""time""
""fullscreenenter"",""0"",""11239""
","
","
","""event"",""trial"",""time""
""fullscreenenter"",""0"",""11239""
","
","4520.0999999940395","<div class='center'><p><img src='run_exp/static/images/tutorial/prac_source.png'  height='500'></p></div>","50","","","","","","","","","","","","","","","","","","","","","","",""
"","html-keyboard-response","75","598996","0.0-49.0-0.0","""event"",""trial"",""time""
""fullscreenenter"",""0"",""11239""
","
","
","""event"",""trial"",""time""
""fullscreenenter"",""0"",""11239""
","
","1527.800000011921","<div class='center'><p>That's correct! You saw this ship on the cavern island.</p><p><b>[Press the space bar to continue]</b></p></div>","32","","","","","","","","","","","","","","","","","","","","","","",""
"","quiz_beginning","76","610243","0.0-49.0-1.0","""event"",""trial"",""time""
""fullscreenenter"",""0"",""11239""
","
","
","""event"",""trial"",""time""
""fullscreenenter"",""0"",""11239""
","
","null","run_exp/static/audio/clip_16_quiz_intro.m4a","null","","","","","<div class='center'><p>Good job on the practice game! Now, you will be asked some true or false questions to make sure you really understand the rules of the game.</p><p> Press <b>'1'</b> on the keyboard for true and press <b>'2'</b> for false.</p></div>","","","","","","","","","","","","","","","","","",""
"","audio-keyboard-response","77","613771","0.0-49.0-2.0","""event"",""trial"",""time""
""fullscreenenter"",""0"",""11239""
","
","
","""event"",""trial"",""time""
""fullscreenenter"",""0"",""11239""
","
","3527.5","run_exp/static/audio/clip_17_q1.m4a","49","","","","","","","","","","","","","","","","","","","","","","",""
"","correct","78","616187","0.0-50.0-0.0","""event"",""trial"",""time""
""fullscreenenter"",""0"",""11239""
","
","
","""event"",""trial"",""time""
""fullscreenenter"",""0"",""11239""
","
","null","run_exp/static/audio/clip_18_correct.m4a","null","","","","","<div class='center'><p>That's correct!</p></div>","","","","","","","","","","","","","","","","","",""
"","html-keyboard-response","79","617833","0.0-50.0-1.0","""event"",""trial"",""time""
""fullscreenenter"",""0"",""11239""
","
","
","""event"",""trial"",""time""
""fullscreenenter"",""0"",""11239""
","
","1645.1000000238419","<div class='center'><p>That's correct!</p><p><b>[Press the space bar to continue]</b></p></div>","32","","","","","","","","","","","","","","","","","","","","","","",""
"","audio-keyboard-response","80","627865","0.0-50.0-2.0","""event"",""trial"",""time""
""fullscreenenter"",""0"",""11239""
","
","
","""event"",""trial"",""time""
""fullscreenenter"",""0"",""11239""
","
","10031.799999982119","run_exp/static/audio/clip_20_q2.m4a","49","","","","","","","","","","","","","","","","","","","","","","",""
"","q2_err","81","633370","0.0-51.0-0.0","""event"",""trial"",""time""
""fullscreenenter"",""0"",""11239""
","
","
","""event"",""trial"",""time""
""fullscreenenter"",""0"",""11239""
","
","null","run_exp/static/audio/clip_21_wrong_q2.m4a","null","","","","","<div class='center'><p>That’s incorrect. Which pirate is the best may change during your time on the island.</p></div>","","","","","","","","","","","","","","","","","",""
"","html-keyboard-response","82","634699","0.0-51.0-1.0","""event"",""trial"",""time""
""fullscreenenter"",""0"",""11239""
","
","
","""event"",""trial"",""time""
""fullscreenenter"",""0"",""11239""
","
","1328.5","<div class='center'><p>That’s incorrect. Which pirate is the best may change during your time on the island.</p><p><b>[Press the space bar to continue]</b></p></div>","32","","","","","","","","","","","","","","","","","","","","","","",""
"","audio-keyboard-response","83","640423","0.0-51.0-2.0","""event"",""trial"",""time""
""fullscreenenter"",""0"",""11239""
","
","
","""event"",""trial"",""time""
""fullscreenenter"",""0"",""11239""
","
","5723.5999999940395","run_exp/static/audio/clip_22_q3.m4a","50","","","","","","","","","","","","","","","","","","","","","","",""
"","correct","84","642843","0.0-52.0-0.0","""event"",""trial"",""time""
""fullscreenenter"",""0"",""11239""
","
","
","""event"",""trial"",""time""
""fullscreenenter"",""0"",""11239""
","
","null","run_exp/static/audio/clip_18_correct.m4a","null","","","","","<div class='center'><p>That's correct!</p></div>","","","","","","","","","","","","","","","","","",""
"","html-keyboard-response","85","645208","0.0-52.0-1.0","""event"",""trial"",""time""
""fullscreenenter"",""0"",""11239""
","
","
","""event"",""trial"",""time""
""fullscreenenter"",""0"",""11239""
","
","2363.9000000059605","<div class='center'><p>That's correct!</p><p><b>[Press the space bar to continue]</b></p></div>","32","","","","","","","","","","","","","","","","","","","","","","",""
"","audio-keyboard-response","86","652033","0.0-52.0-2.0","""event"",""trial"",""time""
""fullscreenenter"",""0"",""11239""
","
","
","""event"",""trial"",""time""
""fullscreenenter"",""0"",""11239""
","
","6824.5","run_exp/static/audio/clip_24_q4.m4a","49","","","","","","","","","","","","","","","","","","","","","","",""
"","correct","87","654430","0.0-53.0-0.0","""event"",""trial"",""time""
""fullscreenenter"",""0"",""11239""
","
","
","""event"",""trial"",""time""
""fullscreenenter"",""0"",""11239""
","
","null","run_exp/static/audio/clip_18_correct.m4a","null","","","","","<div class='center'><p>That's correct!</p></div>","","","","","","","","","","","","","","","","","",""
"","html-keyboard-response","88","655716","0.0-53.0-1.0","""event"",""trial"",""time""
""fullscreenenter"",""0"",""11239""
","
","
","""event"",""trial"",""time""
""fullscreenenter"",""0"",""11239""
","
","1285.300000011921","<div class='center'><p>That's correct!</p><p><b>[Press the space bar to continue]</b></p></div>","32","","","","","","","","","","","","","","","","","","","","","","",""
"","q_all_err","89","661907","0.0-54.0-0.0","""event"",""trial"",""time""
""fullscreenenter"",""0"",""11239""
","
","
","""event"",""trial"",""time""
""fullscreenenter"",""0"",""11239""
","
","null","run_exp/static/audio/clip_26_quiz_redo.m4a","null","","","","","<div class='center'><p>Oops, you missed some questions. Now that you’ve heard the correct answers. Try the quiz again! </p></div>","","","","","","","","","","","","","","","","","",""
"","html-keyboard-response","90","662228","0.0-54.0-1.0","""event"",""trial"",""time""
""fullscreenenter"",""0"",""11239""
","
","
","""event"",""trial"",""time""
""fullscreenenter"",""0"",""11239""
","
","320.5","<div class='center'><p>Oops, you missed some questions. Now that you’ve heard the correct answers. Try the quiz again! </p><p><b>[Press the space bar to continue]</b></p></div>","32","","","","","","","","","","","","","","","","","","","","","","",""
"","audio-keyboard-response","91","663632","0.0-54.0-2.0","""event"",""trial"",""time""
""fullscreenenter"",""0"",""11239""
","
","
","""event"",""trial"",""time""
""fullscreenenter"",""0"",""11239""
","
","1403.5999999940395","run_exp/static/audio/clip_17_q1.m4a","49","","","","","","","","","","","","","","","","","","","","","","",""
"","correct","92","666040","0.0-55.0-0.0","""event"",""trial"",""time""
""fullscreenenter"",""0"",""11239""
","
","
","""event"",""trial"",""time""
""fullscreenenter"",""0"",""11239""
","
","null","run_exp/static/audio/clip_18_correct.m4a","null","","","","","<div class='center'><p>That's correct!</p></div>","","","","","","","","","","","","","","","","","",""
"","html-keyboard-response","93","666389","0.0-55.0-1.0","""event"",""trial"",""time""
""fullscreenenter"",""0"",""11239""
","
","
","""event"",""trial"",""time""
""fullscreenenter"",""0"",""11239""
","
","349","<div class='center'><p>That's correct!</p><p><b>[Press the space bar to continue]</b></p></div>","32","","","","","","","","","","","","","","","","","","","","","","",""
"","audio-keyboard-response","94","669515","0.0-55.0-2.0","""event"",""trial"",""time""
""fullscreenenter"",""0"",""11239""
","
","
","""event"",""trial"",""time""
""fullscreenenter"",""0"",""11239""
","
","3124.7999999821186","run_exp/static/audio/clip_20_q2.m4a","50","","","","","","","","","","","","","","","","","","","","","","",""
"","correct","95","671914","0.0-56.0-0.0","""event"",""trial"",""time""
""fullscreenenter"",""0"",""11239""
","
","
","""event"",""trial"",""time""
""fullscreenenter"",""0"",""11239""
","
","null","run_exp/static/audio/clip_18_correct.m4a","null","","","","","<div class='center'><p>That's correct!</p></div>","","","","","","","","","","","","","","","","","",""
"","html-keyboard-response","96","672203","0.0-56.0-1.0","""event"",""trial"",""time""
""fullscreenenter"",""0"",""11239""
","
","
","""event"",""trial"",""time""
""fullscreenenter"",""0"",""11239""
","
","287.89999997615814","<div class='center'><p>That's correct!</p><p><b>[Press the space bar to continue]</b></p></div>","32","","","","","","","","","","","","","","","","","","","","","","",""
"","audio-keyboard-response","97","675048","0.0-56.0-2.0","""event"",""trial"",""time""
""fullscreenenter"",""0"",""11239""
","
","
","""event"",""trial"",""time""
""fullscreenenter"",""0"",""11239""
","
","2844.4000000059605","run_exp/static/audio/clip_22_q3.m4a","50","","","","","","","","","","","","","","","","","","","","","","",""
"","correct","98","677464","0.0-57.0-0.0","""event"",""trial"",""time""
""fullscreenenter"",""0"",""11239""
","
","
","""event"",""trial"",""time""
""fullscreenenter"",""0"",""11239""
","
","null","run_exp/static/audio/clip_18_correct.m4a","null","","","","","<div class='center'><p>That's correct!</p></div>","","","","","","","","","","","","","","","","","",""
"","html-keyboard-response","99","677791","0.0-57.0-1.0","""event"",""trial"",""time""
""fullscreenenter"",""0"",""11239""
","
","
","""event"",""trial"",""time""
""fullscreenenter"",""0"",""11239""
","
","326.89999997615814","<div class='center'><p>That's correct!</p><p><b>[Press the space bar to continue]</b></p></div>","32","","","","","","","","","","","","","","","","","","","","","","",""
"","audio-keyboard-response","100","679494","0.0-57.0-2.0","""event"",""trial"",""time""
""fullscreenenter"",""0"",""11239""
","
","
","""event"",""trial"",""time""
""fullscreenenter"",""0"",""11239""
","
","1701.8999999761581","run_exp/static/audio/clip_24_q4.m4a","49","","","","","","","","","","","","","","","","","","","","","","",""
"","correct","101","681922","0.0-58.0-0.0","""event"",""trial"",""time""
""fullscreenenter"",""0"",""11239""
","
","
","""event"",""trial"",""time""
""fullscreenenter"",""0"",""11239""
","
","null","run_exp/static/audio/clip_18_correct.m4a","null","","","","","<div class='center'><p>That's correct!</p></div>","","","","","","","","","","","","","","","","","",""
"","html-keyboard-response","102","682468","0.0-58.0-1.0","""event"",""trial"",""time""
""fullscreenenter"",""0"",""11239""
","
","
","""event"",""trial"",""time""
""fullscreenenter"",""0"",""11239""
","
","544.6000000238419","<div class='center'><p>That's correct!</p><p><b>[Press the space bar to continue]</b></p></div>","32","","","","","","","","","","","","","","","","","","","","","","",""
"","q_all_corr","103","690955","0.0-59.0-0.0","""event"",""trial"",""time""
""fullscreenenter"",""0"",""11239""
","
","
","""event"",""trial"",""time""
""fullscreenenter"",""0"",""11239""
","
","null","run_exp/static/audio/clip_27_quiz_all_correct.m4a","null","","","","","<div class='center'><p>Good job! You’re now ready to move on to the real game! Remember this game will be difficult but don't get discouraged and try your best!</p></div>","","","","","","","","","","","","","","","","","",""
"","html-keyboard-response","104","693266","0.0-59.0-1.0","""event"",""trial"",""time""
""fullscreenenter"",""0"",""11239""
","
","
","""event"",""trial"",""time""
""fullscreenenter"",""0"",""11239""
","
","2310.699999988079","<div class='center'><p>Good job! You’re now ready to move on to the real game! Remember this game will be difficult but don't get discouraged and try your best!</p><p><b>[Press the space bar to continue]</b></p></div>","32","","","","","","","","","","","","","","","","","","","","","","",""
"","do_welcome","105","697270","0.0-60.0-0.0","""event"",""trial"",""time""
""fullscreenenter"",""0"",""11239""
","
","
","""event"",""trial"",""time""
""fullscreenenter"",""0"",""11239""
","
","null","","","","","","","","null","","","","","","","","","","","","","","","","",""
"","do_trial","106","702813","0.0-61.0-0.0","""event"",""trial"",""time""
""fullscreenenter"",""0"",""11239""
","
","
","""event"",""trial"",""time""
""fullscreenenter"",""0"",""11239""
","
","999.5","","","","","","","","49","1,1,0","0","city","0","probe-155","0.6","0.3","0.1","1","","","","","","","",""
"","html-keyboard-response","107","703816","0.0-61.0-1.0","""event"",""trial"",""time""
""fullscreenenter"",""0"",""11239""
","
","
","""event"",""trial"",""time""
""fullscreenenter"",""0"",""11239""
","
","null","<p></p>","null","","","","","","","","","","","","","","","","","","","","","","",""
"","do_trial","108","709156","0.0-62.0-0.0","""event"",""trial"",""time""
""fullscreenenter"",""0"",""11239""
","
","
","""event"",""trial"",""time""
""fullscreenenter"",""0"",""11239""
","
","799.3999999761581","","","","","","","","49","1,0,0","0","city","1","probe-105","0.7061037278946651","0.2436144076728839","0.16036928464949982","1","","","","","","","",""
"","html-keyboard-response","109","710158","0.0-62.0-1.0","""event"",""trial"",""time""
""fullscreenenter"",""0"",""11239""
","
","
","""event"",""trial"",""time""
""fullscreenenter"",""0"",""11239""
","
","null","<p></p>","null","","","","","","","","","","","","","","","","","","","","","","",""
"","do_trial","110","715046","0.0-63.0-0.0","""event"",""trial"",""time""
""fullscreenenter"",""0"",""11239""
","
","
","""event"",""trial"",""time""
""fullscreenenter"",""0"",""11239""
","
","346.69999998807907","","","","","","","","49","0,1,0","0","city","2","probe-84","0.7136782984258695","0.24005561167517797","0.11511283176046432","0","","","","","","","",""
"","html-keyboard-response","111","716049","0.0-63.0-1.0","""event"",""trial"",""time""
""fullscreenenter"",""0"",""11239""
","
","
","""event"",""trial"",""time""
""fullscreenenter"",""0"",""11239""
","
","null","<p></p>","null","","","","","","","","","","","","","","","","","","","","","","",""
"","do_trial","112","721244","0.0-64.0-0.0","""event"",""trial"",""time""
""fullscreenenter"",""0"",""11239""
","
","
","""event"",""trial"",""time""
""fullscreenenter"",""0"",""11239""
","
","652.3999999761581","","","","","","","","49","0,0,0","0","city","3","probe-206","0.6253397896031473","0.30356969677728557","0.08997083836185908","0","","","","","","","",""
"","html-keyboard-response","113","722249","0.0-64.0-1.0","""event"",""trial"",""time""
""fullscreenenter"",""0"",""11239""
","
","
","""event"",""trial"",""time""
""fullscreenenter"",""0"",""11239""
","
","null","<p></p>","null","","","","","","","","","","","","","","","","","","","","","","",""
"","do_trial","114","727205","0.0-65.0-0.0","""event"",""trial"",""time""
""fullscreenenter"",""0"",""11239""
","
","
","""event"",""trial"",""time""
""fullscreenenter"",""0"",""11239""
","
","411.80000001192093","","","","","","","","50","1,0,0","0","city","4","probe-132","0.6099198738574642","0.3578693262949729","0.11126486214668915","0","","","","","","","",""
"","html-keyboard-response","115","728211","0.0-65.0-1.0","""event"",""trial"",""time""
""fullscreenenter"",""0"",""11239""
","
","
","""event"",""trial"",""time""
""fullscreenenter"",""0"",""11239""
","
","null","<p></p>","null","","","","","","","","","","","","","","","","","","","","","","",""
"","do_trial","116","733580","0.0-66.0-0.0","""event"",""trial"",""time""
""fullscreenenter"",""0"",""11239""
","
","
","""event"",""trial"",""time""
""fullscreenenter"",""0"",""11239""
","
","823.7999999821186","","","","","","","","51","1,0,0","0","city","5","probe-162","0.6158291252504323","0.3095520390131854","0.2504420617373281","0","","","","","","","",""
"","html-keyboard-response","117","734587","0.0-66.0-1.0","""event"",""trial"",""time""
""fullscreenenter"",""0"",""11239""
","
","
","""event"",""trial"",""time""
""fullscreenenter"",""0"",""11239""
","
","null","<p></p>","null","","","","","","","","","","","","","","","","","","","","","","",""
"","do_trial","118","739727","0.0-67.0-0.0","""event"",""trial"",""time""
""fullscreenenter"",""0"",""11239""
","
","
","""event"",""trial"",""time""
""fullscreenenter"",""0"",""11239""
","
","594","","","","","","","","49","0,1,0","0","city","6","probe-76","0.653710547600546","0.39241070419223817","0.3357360708062679","0","","","","","","","",""
"","html-keyboard-response","119","740733","0.0-67.0-1.0","""event"",""trial"",""time""
""fullscreenenter"",""0"",""11239""
","
","
","""event"",""trial"",""time""
""fullscreenenter"",""0"",""11239""
","
","null","<p></p>","null","","","","","","","","","","","","","","","","","","","","","","",""
"","do_trial","120","745940","0.0-68.0-0.0","""event"",""trial"",""time""
""fullscreenenter"",""0"",""11239""
","
","
","""event"",""trial"",""time""
""fullscreenenter"",""0"",""11239""
","
","661.5","","","","","","","","49","1,0,0","0","city","7","probe-102","0.6412319541989348","0.43304918794675035","0.31811905885301434","1","","","","","","","",""
"","html-keyboard-response","121","746947","0.0-68.0-1.0","""event"",""trial"",""time""
""fullscreenenter"",""0"",""11239""
","
","
","""event"",""trial"",""time""
""fullscreenenter"",""0"",""11239""
","
","null","<p></p>","null","","","","","","","","","","","","","","","","","","","","","","",""
"","do_trial","122","752992","0.0-69.0-0.0","""event"",""trial"",""time""
""fullscreenenter"",""0"",""11239""
","
","
","""event"",""trial"",""time""
""fullscreenenter"",""0"",""11239""
","
","null","","","","","","","","null","1,0,0","0","city","8","probe-146","0.646254410398996","0.1999765654719463","0.27684551144601993","","","","","","","","",""
"","html-keyboard-response","123","753995","0.0-69.0-1.0","""event"",""trial"",""time""
""fullscreenenter"",""0"",""11239""
","
","
","""event"",""trial"",""time""
""fullscreenenter"",""0"",""11239""
","
","null","<p></p>","null","","","","","","","","","","","","","","","","","","","","","","",""
"","do_trial","124","759134","0.0-70.0-0.0","""event"",""trial"",""time""
""fullscreenenter"",""0"",""11239""
","
","
","""event"",""trial"",""time""
""fullscreenenter"",""0"",""11239""
","
","598.4000000059605","","","","","","","","49","1,0,0","0","city","9","probe-156","0.5539410146290361","0.21584472006567293","0.18076854628424685","1","","","","","","","",""
"","html-keyboard-response","125","760141","0.0-70.0-1.0","""event"",""trial"",""time""
""fullscreenenter"",""0"",""11239""
","
","
","""event"",""trial"",""time""
""fullscreenenter"",""0"",""11239""
","
","null","<p></p>","null","","","","","","","","","","","","","","","","","","","","","","",""
"","do_trial","126","765275","0.0-71.0-0.0","""event"",""trial"",""time""
""fullscreenenter"",""0"",""11239""
","
","
","""event"",""trial"",""time""
""fullscreenenter"",""0"",""11239""
","
","588.1999999880791","","","","","","","","49","0,0,0","0","city","10","probe-112","0.5796771659564081","0.30033461134738615","0.059715190309688","0","","","","","","","",""
"","html-keyboard-response","127","766282","0.0-71.0-1.0","""event"",""trial"",""time""
""fullscreenenter"",""0"",""11239""
","
","
","""event"",""trial"",""time""
""fullscreenenter"",""0"",""11239""
","
","null","<p></p>","null","","","","","","","","","","","","","","","","","","","","","","",""
"","do_trial","128","771458","0.0-72.0-0.0","""event"",""trial"",""time""
""fullscreenenter"",""0"",""11239""
","
","
","""event"",""trial"",""time""
""fullscreenenter"",""0"",""11239""
","
","634.3000000119209","","","","","","","","49","1,0,0","0","city","11","probe-223","0.5516934339951579","0.3636470071215144","0.12837702503721954","1","","","","","","","",""
"","html-keyboard-response","129","772465","0.0-72.0-1.0","""event"",""trial"",""time""
""fullscreenenter"",""0"",""11239""
","
","
","""event"",""trial"",""time""
""fullscreenenter"",""0"",""11239""
","
","null","<p></p>","null","","","","","","","","","","","","","","","","","","","","","","",""
"","do_trial","130","778505","0.0-73.0-0.0","""event"",""trial"",""time""
""fullscreenenter"",""0"",""11239""
","
","
","""event"",""trial"",""time""
""fullscreenenter"",""0"",""11239""
","
","1494.7999999821186","","","","","","","","49","1,1,0","0","city","12","probe-64","0.564267140123676","0.3419186608687665","0.05347688271184082","1","","","","","","","",""
"","html-keyboard-response","131","779511","0.0-73.0-1.0","""event"",""trial"",""time""
""fullscreenenter"",""0"",""11239""
","
","
","""event"",""trial"",""time""
""fullscreenenter"",""0"",""11239""
","
","null","<p></p>","null","","","","","","","","","","","","","","","","","","","","","","",""
"","do_trial","132","784729","0.0-74.0-0.0","""event"",""trial"",""time""
""fullscreenenter"",""0"",""11239""
","
","
","""event"",""trial"",""time""
""fullscreenenter"",""0"",""11239""
","
","675.1000000238419","","","","","","","","49","1,1,0","0","city","13","probe-208","0.5793551047038114","0.4509304439761951","0.07194997897584289","1","","","","","","","",""
"","html-keyboard-response","133","785736","0.0-74.0-1.0","""event"",""trial"",""time""
""fullscreenenter"",""0"",""11239""
","
","
","""event"",""trial"",""time""
""fullscreenenter"",""0"",""11239""
","
","null","<p></p>","null","","","","","","","","","","","","","","","","","","","","","","",""
"","do_trial","134","790982","0.0-75.0-0.0","""event"",""trial"",""time""
""fullscreenenter"",""0"",""11239""
","
","
","""event"",""trial"",""time""
""fullscreenenter"",""0"",""11239""
","
","699.4000000059605","","","","","","","","49","0,1,0","0","city","14","probe-44","0.4677860174640911","0.412603208413756","0.08856651627889602","0","","","","","","","",""
"","html-keyboard-response","135","791988","0.0-75.0-1.0","""event"",""trial"",""time""
""fullscreenenter"",""0"",""11239""
","
","
","""event"",""trial"",""time""
""fullscreenenter"",""0"",""11239""
","
","null","<p></p>","null","","","","","","","","","","","","","","","","","","","","","","",""
"","do_trial","136","797118","0.0-76.0-0.0","""event"",""trial"",""time""
""fullscreenenter"",""0"",""11239""
","
","
","""event"",""trial"",""time""
""fullscreenenter"",""0"",""11239""
","
","578.5","","","","","","","","49","1,0,1","0","city","15","probe-122","0.36116597042213255","0.3293357294279113","0.08037994155518088","1","","","","","","","",""
"","html-keyboard-response","137","798124","0.0-76.0-1.0","""event"",""trial"",""time""
""fullscreenenter"",""0"",""11239""
","
","
","""event"",""trial"",""time""
""fullscreenenter"",""0"",""11239""
","
","null","<p></p>","null","","","","","","","","","","","","","","","","","","","","","","",""
"","do_trial","138","803320","0.0-77.0-0.0","""event"",""trial"",""time""
""fullscreenenter"",""0"",""11239""
","
","
","""event"",""trial"",""time""
""fullscreenenter"",""0"",""11239""
","
","653.0999999940395","","","","","","","","49","0,1,0","0","city","16","probe-15","0.5011427762232581","0.29737007140176486","0.2029014577381188","0","","","","","","","",""
"","html-keyboard-response","139","804327","0.0-77.0-1.0","""event"",""trial"",""time""
""fullscreenenter"",""0"",""11239""
","
","
","""event"",""trial"",""time""
""fullscreenenter"",""0"",""11239""
","
","null","<p></p>","null","","","","","","","","","","","","","","","","","","","","","","",""
"","do_trial","140","809480","0.0-78.0-0.0","""event"",""trial"",""time""
""fullscreenenter"",""0"",""11239""
","
","
","""event"",""trial"",""time""
""fullscreenenter"",""0"",""11239""
","
","602.3000000119209","","","","","","","","49","1,0,0","0","city","17","probe-30","0.5575071266233733","0.3616318001657123","0.19983328067609482","1","","","","","","","",""
"","html-keyboard-response","141","810481","0.0-78.0-1.0","""event"",""trial"",""time""
""fullscreenenter"",""0"",""11239""
","
","
","""event"",""trial"",""time""
""fullscreenenter"",""0"",""11239""
","
","null","<p></p>","null","","","","","","","","","","","","","","","","","","","","","","",""
"","do_trial","142","815538","0.0-79.0-0.0","""event"",""trial"",""time""
""fullscreenenter"",""0"",""11239""
","
","
","""event"",""trial"",""time""
""fullscreenenter"",""0"",""11239""
","
","511.80000001192093","","","","","","","","49","1,0,0","0","city","18","probe-119","0.4437624558510443","0.36846639811921206","0.07295305327313235","1","","","","","","","",""
"","html-keyboard-response","143","816543","0.0-79.0-1.0","""event"",""trial"",""time""
""fullscreenenter"",""0"",""11239""
","
","
","""event"",""trial"",""time""
""fullscreenenter"",""0"",""11239""
","
","null","<p></p>","null","","","","","","","","","","","","","","","","","","","","","","",""
"","do_trial","144","821669","0.0-80.0-0.0","""event"",""trial"",""time""
""fullscreenenter"",""0"",""11239""
","
","
","""event"",""trial"",""time""
""fullscreenenter"",""0"",""11239""
","
","578.6999999880791","","","","","","","","49","1,0,0","0","city","19","probe-36","0.4455718517988539","0.38832200096021124","0.12170307427008106","1","","","","","","","",""
"","html-keyboard-response","145","822676","0.0-80.0-1.0","""event"",""trial"",""time""
""fullscreenenter"",""0"",""11239""
","
","
","""event"",""trial"",""time""
""fullscreenenter"",""0"",""11239""
","
","null","<p></p>","null","","","","","","","","","","","","","","","","","","","","","","",""
"","do_trial","146","827976","0.0-81.0-0.0","""event"",""trial"",""time""
""fullscreenenter"",""0"",""11239""
","
","
","""event"",""trial"",""time""
""fullscreenenter"",""0"",""11239""
","
","755.2000000178814","","","","","","","","49","1,1,0","0","city","20","probe-113","0.5927946498415096","0.3841244097647871","0.06284601635783138","1","","","","","","","",""
"","html-keyboard-response","147","828982","0.0-81.0-1.0","""event"",""trial"",""time""
""fullscreenenter"",""0"",""11239""
","
","
","""event"",""trial"",""time""
""fullscreenenter"",""0"",""11239""
","
","null","<p></p>","null","","","","","","","","","","","","","","","","","","","","","","",""
"","do_trial","148","834174","0.0-82.0-0.0","""event"",""trial"",""time""
""fullscreenenter"",""0"",""11239""
","
","
","""event"",""trial"",""time""
""fullscreenenter"",""0"",""11239""
","
","644.1999999880791","","","","","","","","49","1,1,0","0","city","21","probe-196","0.7106115889247862","0.28136989684585134","0.05231019107387949","1","","","","","","","",""
"","html-keyboard-response","149","835180","0.0-82.0-1.0","""event"",""trial"",""time""
""fullscreenenter"",""0"",""11239""
","
","
","""event"",""trial"",""time""
""fullscreenenter"",""0"",""11239""
","
","null","<p></p>","null","","","","","","","","","","","","","","","","","","","","","","",""
"","do_trial","150","840395","0.0-83.0-0.0","""event"",""trial"",""time""
""fullscreenenter"",""0"",""11239""
","
","
","""event"",""trial"",""time""
""fullscreenenter"",""0"",""11239""
","
","671.2999999821186","","","","","","","","49","1,1,0","0","city","22","probe-165","0.589597668635786","0.32594060087802573","0.106117015635105","1","","","","","","","",""
"","html-keyboard-response","151","841401","0.0-83.0-1.0","""event"",""trial"",""time""
""fullscreenenter"",""0"",""11239""
","
","
","""event"",""trial"",""time""
""fullscreenenter"",""0"",""11239""
","
","null","<p></p>","null","","","","","","","","","","","","","","","","","","","","","","",""
"","do_trial","152","846601","0.0-84.0-0.0","""event"",""trial"",""time""
""fullscreenenter"",""0"",""11239""
","
","
","""event"",""trial"",""time""
""fullscreenenter"",""0"",""11239""
","
","659","","","","","","","","49","0,1,0","0","city","23","probe-180","0.6844616315208131","0.3166464105502823","0.12591993087140935","0","","","","","","","",""
"","html-keyboard-response","153","847604","0.0-84.0-1.0","""event"",""trial"",""time""
""fullscreenenter"",""0"",""11239""
","
","
","""event"",""trial"",""time""
""fullscreenenter"",""0"",""11239""
","
","null","<p></p>","null","","","","","","","","","","","","","","","","","","","","","","",""
"","do_trial","154","852757","0.0-85.0-0.0","""event"",""trial"",""time""
""fullscreenenter"",""0"",""11239""
","
","
","""event"",""trial"",""time""
""fullscreenenter"",""0"",""11239""
","
","607.5","","","","","","","","49","1,1,0","0","city","24","probe-58","0.7681799757766504","0.31538195032860455","0.15267764392880273","1","","","","","","","",""
"","html-keyboard-response","155","853763","0.0-85.0-1.0","""event"",""trial"",""time""
""fullscreenenter"",""0"",""11239""
","
","
","""event"",""trial"",""time""
""fullscreenenter"",""0"",""11239""
","
","null","<p></p>","null","","","","","","","","","","","","","","","","","","","","","","",""
"","do_trial","156","858933","0.0-86.0-0.0","""event"",""trial"",""time""
""fullscreenenter"",""0"",""11239""
","
","
","""event"",""trial"",""time""
""fullscreenenter"",""0"",""11239""
","
","626.7999999821186","","","","","","","","49","0,0,0","0","city","25","probe-203","0.648904103190899","0.2718729710716752","0.1106018110396028","0","","","","","","","",""
"","html-keyboard-response","157","859936","0.0-86.0-1.0","""event"",""trial"",""time""
""fullscreenenter"",""0"",""11239""
","
","
","""event"",""trial"",""time""
""fullscreenenter"",""0"",""11239""
","
","null","<p></p>","null","","","","","","","","","","","","","","","","","","","","","","",""
"","do_trial","158","865132","0.0-87.0-0.0","""event"",""trial"",""time""
""fullscreenenter"",""0"",""11239""
","
","
","""event"",""trial"",""time""
""fullscreenenter"",""0"",""11239""
","
","653.0999999940395","","","","","","","","49","1,1,1","0","city","26","probe-21","0.5326708890043164","0.20992391899369928","0.21355412557799386","1","","","","","","","",""
"","html-keyboard-response","159","866138","0.0-87.0-1.0","""event"",""trial"",""time""
""fullscreenenter"",""0"",""11239""
","
","
","""event"",""trial"",""time""
""fullscreenenter"",""0"",""11239""
","
","null","<p></p>","null","","","","","","","","","","","","","","","","","","","","","","",""
"","do_trial","160","871343","0.0-88.0-0.0","""event"",""trial"",""time""
""fullscreenenter"",""0"",""11239""
","
","
","""event"",""trial"",""time""
""fullscreenenter"",""0"",""11239""
","
","658.2999999821186","","","","","","","","49","0,0,0","0","city","27","probe-190","0.528341218124821","0.3001084261468963","0.09039188304485951","0","","","","","","","",""
"","html-keyboard-response","161","872346","0.0-88.0-1.0","""event"",""trial"",""time""
""fullscreenenter"",""0"",""11239""
","
","
","""event"",""trial"",""time""
""fullscreenenter"",""0"",""11239""
","
","null","<p></p>","null","","","","","","","","","","","","","","","","","","","","","","",""
"","do_trial","162","878575","0.0-89.0-0.0","""event"",""trial"",""time""
""fullscreenenter"",""0"",""11239""
","
","
","""event"",""trial"",""time""
""fullscreenenter"",""0"",""11239""
","
","1687.6000000238419","","","","","","","","49","0,0,0","0","city","28","probe-97","0.5566031897766314","0.31291295520280615","0.16561759032887433","0","","","","","","","",""
"","html-keyboard-response","163","879582","0.0-89.0-1.0","""event"",""trial"",""time""
""fullscreenenter"",""0"",""11239""
","
","
","""event"",""trial"",""time""
""fullscreenenter"",""0"",""11239""
","
","null","<p></p>","null","","","","","","","","","","","","","","","","","","","","","","",""
"","do_trial","164","884747","0.0-90.0-0.0","""event"",""trial"",""time""
""fullscreenenter"",""0"",""11239""
","
","
","""event"",""trial"",""time""
""fullscreenenter"",""0"",""11239""
","
","620.3999999761581","","","","","","","","49","1,0,0","0","city","29","probe-168","0.4920499342178685","0.19423299177410527","0.1351702650258849","1","","","","","","","",""
"","html-keyboard-response","165","885753","0.0-90.0-1.0","""event"",""trial"",""time""
""fullscreenenter"",""0"",""11239""
","
","
","""event"",""trial"",""time""
""fullscreenenter"",""0"",""11239""
","
","null","<p></p>","null","","","","","","","","","","","","","","","","","","","","","","",""
"","do_bye","166","887262","0.0-91.0-0.0","""event"",""trial"",""time""
""fullscreenenter"",""0"",""11239""
","
","
","""event"",""trial"",""time""
""fullscreenenter"",""0"",""11239""
","
","null","","","","","","","","null","","","","","","","","","","","","","","","","",""
"","break","167","901122","0.0-91.0-1.0","""event"",""trial"",""time""
""fullscreenenter"",""0"",""11239""
","
","
","""event"",""trial"",""time""
""fullscreenenter"",""0"",""11239""
","
","13859","<div class='center'><p>Time to take a quick break! You have 2 minutes to rest, but you can move on sooner if you'd like.</p><p> Press the <b>space bar</b> to continue.</p></div>","32","","","","","","","","","","","","","","","","","","","","","","",""
"","do_travel","168","910129","0.0-92.0-0.0","""event"",""trial"",""time""
""fullscreenenter"",""0"",""11239""
","
","
","""event"",""trial"",""time""
""fullscreenenter"",""0"",""11239""
","
","null","","","","","","","","null","","","","","","","","","","","","","","","","",""
"","do_welcome","169","914139","0.0-92.0-1.0","""event"",""trial"",""time""
""fullscreenenter"",""0"",""11239""
","
","
","""event"",""trial"",""time""
""fullscreenenter"",""0"",""11239""
","
","null","","","","","","","","null","","","","","","","","","","","","","","","","",""
"","do_trial","170","919341","0.0-93.0-0.0","""event"",""trial"",""time""
""fullscreenenter"",""0"",""11239""
","
","
","""event"",""trial"",""time""
""fullscreenenter"",""0"",""11239""
","
","660.0999999940395","","","","","","","","51","1,0,1","1","mountain","30","probe-11","1","0.1392348486847531","0.18310419516606913","1","","","","","","","",""
"","html-keyboard-response","171","920345","0.0-93.0-1.0","""event"",""trial"",""time""
""fullscreenenter"",""0"",""11239""
","
","
","""event"",""trial"",""time""
""fullscreenenter"",""0"",""11239""
","
","null","<p></p>","null","","","","","","","","","","","","","","","","","","","","","","",""
"","do_trial","172","926389","0.0-94.0-0.0","""event"",""trial"",""time""
""fullscreenenter"",""0"",""11239""
","
","
","""event"",""trial"",""time""
""fullscreenenter"",""0"",""11239""
","
","null","","","","","","","","null","1,0,0","1","mountain","31","probe-19","1","0.16003762686085396","0.09152496390441682","","","","","","","","",""
"","html-keyboard-response","173","927395","0.0-94.0-1.0","""event"",""trial"",""time""
""fullscreenenter"",""0"",""11239""
","
","
","""event"",""trial"",""time""
""fullscreenenter"",""0"",""11239""
","
","null","<p></p>","null","","","","","","","","","","","","","","","","","","","","","","",""
"","do_trial","174","932292","0.0-95.0-0.0","""event"",""trial"",""time""
""fullscreenenter"",""0"",""11239""
","
","
","""event"",""trial"",""time""
""fullscreenenter"",""0"",""11239""
","
","353.40000000596046","","","","","","","","51","1,0,0","1","mountain","32","probe-74","1","0.26651429370738156","0.37168873632609306","0","","","","","","","",""
"","html-keyboard-response","175","933296","0.0-95.0-1.0","""event"",""trial"",""time""
""fullscreenenter"",""0"",""11239""
","
","
","""event"",""trial"",""time""
""fullscreenenter"",""0"",""11239""
","
","null","<p></p>","null","","","","","","","","","","","","","","","","","","","","","","",""
"","do_trial","176","938482","0.0-96.0-0.0","""event"",""trial"",""time""
""fullscreenenter"",""0"",""11239""
","
","
","""event"",""trial"",""time""
""fullscreenenter"",""0"",""11239""
","
","639.9000000059605","","","","","","","","51","1,0,0","1","mountain","33","probe-63","0.9452989043796832","0.2859744741041862","0.2809023263621928","0","","","","","","","",""
"","html-keyboard-response","177","939488","0.0-96.0-1.0","""event"",""trial"",""time""
""fullscreenenter"",""0"",""11239""
","
","
","""event"",""trial"",""time""
""fullscreenenter"",""0"",""11239""
","
","null","<p></p>","null","","","","","","","","","","","","","","","","","","","","","","",""
"","do_trial","178","944619","0.0-97.0-0.0","""event"",""trial"",""time""
""fullscreenenter"",""0"",""11239""
","
","
","""event"",""trial"",""time""
""fullscreenenter"",""0"",""11239""
","
","587.4000000059605","","","","","","","","50","1,1,1","1","mountain","34","probe-145","0.7685179384140581","0.3215913049851514","0.16645334572124434","1","","","","","","","",""
"","html-keyboard-response","179","945625","0.0-97.0-1.0","""event"",""trial"",""time""
""fullscreenenter"",""0"",""11239""
","
","
","""event"",""trial"",""time""
""fullscreenenter"",""0"",""11239""
","
","null","<p></p>","null","","","","","","","","","","","","","","","","","","","","","","",""
"","do_trial","180","950928","0.0-98.0-0.0","""event"",""trial"",""time""
""fullscreenenter"",""0"",""11239""
","
","
","""event"",""trial"",""time""
""fullscreenenter"",""0"",""11239""
","
","759.1999999880791","","","","","","","","50","1,1,0","1","mountain","35","probe-133","0.6749823221848421","0.42071258001875195","0.12924241391155786","1","","","","","","","",""
"","html-keyboard-response","181","951932","0.0-98.0-1.0","""event"",""trial"",""time""
""fullscreenenter"",""0"",""11239""
","
","
","""event"",""trial"",""time""
""fullscreenenter"",""0"",""11239""
","
","null","<p></p>","null","","","","","","","","","","","","","","","","","","","","","","",""
"","do_trial","182","957607","0.0-99.0-0.0","""event"",""trial"",""time""
""fullscreenenter"",""0"",""11239""
","
","
","""event"",""trial"",""time""
""fullscreenenter"",""0"",""11239""
","
","1131","","","","","","","","50","1,0,0","1","mountain","36","probe-189","0.7691911027701838","0.25436949739567","0.12430507647532606","0","","","","","","","",""
"","html-keyboard-response","183","958614","0.0-99.0-1.0","""event"",""trial"",""time""
""fullscreenenter"",""0"",""11239""
","
","
","""event"",""trial"",""time""
""fullscreenenter"",""0"",""11239""
","
","null","<p></p>","null","","","","","","","","","","","","","","","","","","","","","","",""
"","do_trial","184","964072","0.0-100.0-0.0","""event"",""trial"",""time""
""fullscreenenter"",""0"",""11239""
","
","
","""event"",""trial"",""time""
""fullscreenenter"",""0"",""11239""
","
","913.6000000238419","","","","","","","","50","0,1,0","1","mountain","37","probe-188","0.5838434189362711","0.38465021292736706","0.207619632885918","1","","","","","","","",""
"","html-keyboard-response","185","965079","0.0-100.0-1.0","""event"",""trial"",""time""
""fullscreenenter"",""0"",""11239""
","
","
","""event"",""trial"",""time""
""fullscreenenter"",""0"",""11239""
","
","null","<p></p>","null","","","","","","","","","","","","","","","","","","","","","","",""
"","do_trial","186","970360","0.0-101.0-0.0","""event"",""trial"",""time""
""fullscreenenter"",""0"",""11239""
","
","
","""event"",""trial"",""time""
""fullscreenenter"",""0"",""11239""
","
","739","","","","","","","","50","0,0,0","1","mountain","38","probe-49","0.5596352388208027","0.32679412516544637","0.15655356398766684","0","","","","","","","",""
"","html-keyboard-response","187","971367","0.0-101.0-1.0","""event"",""trial"",""time""
""fullscreenenter"",""0"",""11239""
","
","
","""event"",""trial"",""time""
""fullscreenenter"",""0"",""11239""
","
","null","<p></p>","null","","","","","","","","","","","","","","","","","","","","","","",""
"","do_trial","188","976542","0.0-102.0-0.0","""event"",""trial"",""time""
""fullscreenenter"",""0"",""11239""
","
","
","""event"",""trial"",""time""
""fullscreenenter"",""0"",""11239""
","
","631.2999999821186","","","","","","","","50","0,0,0","1","mountain","39","probe-46","0.5328474240351884","0.45010135482470204","0.2013418036674364","0","","","","","","","",""
"","html-keyboard-response","189","977549","0.0-102.0-1.0","""event"",""trial"",""time""
""fullscreenenter"",""0"",""11239""
","
","
","""event"",""trial"",""time""
""fullscreenenter"",""0"",""11239""
","
","null","<p></p>","null","","","","","","","","","","","","","","","","","","","","","","",""
"","do_trial","190","982755","0.0-103.0-0.0","""event"",""trial"",""time""
""fullscreenenter"",""0"",""11239""
","
","
","""event"",""trial"",""time""
""fullscreenenter"",""0"",""11239""
","
","660.1999999880791","","","","","","","","50","1,0,0","1","mountain","40","probe-161","0.5236071261791988","0.44913410456790076","0.23445385189608964","0","","","","","","","",""
"","html-keyboard-response","191","983762","0.0-103.0-1.0","""event"",""trial"",""time""
""fullscreenenter"",""0"",""11239""
","
","
","""event"",""trial"",""time""
""fullscreenenter"",""0"",""11239""
","
","null","<p></p>","null","","","","","","","","","","","","","","","","","","","","","","",""
"","do_trial","192","988557","0.0-104.0-0.0","""event"",""trial"",""time""
""fullscreenenter"",""0"",""11239""
","
","
","""event"",""trial"",""time""
""fullscreenenter"",""0"",""11239""
","
","248","","","","","","","","51","0,0,1","1","mountain","41","probe-129","0.4994269782548086","0.3047167058873555","0.30279423272042283","1","","","","","","","",""
"","html-keyboard-response","193","989561","0.0-104.0-1.0","""event"",""trial"",""time""
""fullscreenenter"",""0"",""11239""
","
","
","""event"",""trial"",""time""
""fullscreenenter"",""0"",""11239""
","
","null","<p></p>","null","","","","","","","","","","","","","","","","","","","","","","",""
"","do_trial","194","995093","0.0-105.0-0.0","""event"",""trial"",""time""
""fullscreenenter"",""0"",""11239""
","
","
","""event"",""trial"",""time""
""fullscreenenter"",""0"",""11239""
","
","989.2000000178814","","","","","","","","51","1,0,1","1","mountain","42","probe-141","0.3431873347956472","0.1719029205412157","0.40462937052230813","1","","","","","","","",""
"","html-keyboard-response","195","996094","0.0-105.0-1.0","""event"",""trial"",""time""
""fullscreenenter"",""0"",""11239""
","
","
","""event"",""trial"",""time""
""fullscreenenter"",""0"",""11239""
","
","null","<p></p>","null","","","","","","","","","","","","","","","","","","","","","","",""
"","do_trial","196","1001299","0.0-106.0-0.0","""event"",""trial"",""time""
""fullscreenenter"",""0"",""11239""
","
","
","""event"",""trial"",""time""
""fullscreenenter"",""0"",""11239""
","
","659","","","","","","","","49","1,0,1","1","mountain","43","probe-73","0.26583618481016613","0.12374301455416908","0.45430613021928606","1","","","","","","","",""
"","html-keyboard-response","197","1002306","0.0-106.0-1.0","""event"",""trial"",""time""
""fullscreenenter"",""0"",""11239""
","
","
","""event"",""trial"",""time""
""fullscreenenter"",""0"",""11239""
","
","null","<p></p>","null","","","","","","","","","","","","","","","","","","","","","","",""
"","do_trial","198","1007266","0.0-107.0-0.0","""event"",""trial"",""time""
""fullscreenenter"",""0"",""11239""
","
","
","""event"",""trial"",""time""
""fullscreenenter"",""0"",""11239""
","
","417.90000000596046","","","","","","","","51","1,1,1","1","mountain","44","probe-31","0.2127312358756615","0.23209485263668092","0.5635776052593842","1","","","","","","","",""
"","html-keyboard-response","199","1008272","0.0-107.0-1.0","""event"",""trial"",""time""
""fullscreenenter"",""0"",""11239""
","
","
","""event"",""trial"",""time""
""fullscreenenter"",""0"",""11239""
","
","null","<p></p>","null","","","","","","","","","","","","","","","","","","","","","","",""
"","do_trial","200","1013397","0.0-108.0-0.0","""event"",""trial"",""time""
""fullscreenenter"",""0"",""11239""
","
","
","""event"",""trial"",""time""
""fullscreenenter"",""0"",""11239""
","
","580.4000000059605","","","","","","","","51","0,0,0","1","mountain","45","probe-181","0.15519623888746267","0.23597470074252158","0.6935264792233637","0","","","","","","","",""
"","html-keyboard-response","201","1014401","0.0-108.0-1.0","""event"",""trial"",""time""
""fullscreenenter"",""0"",""11239""
","
","
","""event"",""trial"",""time""
""fullscreenenter"",""0"",""11239""
","
","null","<p></p>","null","","","","","","","","","","","","","","","","","","","","","","",""
"","do_trial","202","1019603","0.0-109.0-0.0","""event"",""trial"",""time""
""fullscreenenter"",""0"",""11239""
","
","
","""event"",""trial"",""time""
""fullscreenenter"",""0"",""11239""
","
","657.0999999940395","","","","","","","","51","0,0,0","1","mountain","46","probe-79","0.18511987356455442","0.3100070761129212","0.5357267254477385","0","","","","","","","",""
"","html-keyboard-response","203","1020606","0.0-109.0-1.0","""event"",""trial"",""time""
""fullscreenenter"",""0"",""11239""
","
","
","""event"",""trial"",""time""
""fullscreenenter"",""0"",""11239""
","
","null","<p></p>","null","","","","","","","","","","","","","","","","","","","","","","",""
"","do_trial","204","1025725","0.0-110.0-0.0","""event"",""trial"",""time""
""fullscreenenter"",""0"",""11239""
","
","
","""event"",""trial"",""time""
""fullscreenenter"",""0"",""11239""
","
","573.5999999940395","","","","","","","","51","0,0,0","1","mountain","47","probe-69","0.11058362777709099","0.1976646988039592","0.4758002287615643","0","","","","","","","",""
"","html-keyboard-response","205","1026731","0.0-110.0-1.0","""event"",""trial"",""time""
""fullscreenenter"",""0"",""11239""
","
","
","""event"",""trial"",""time""
""fullscreenenter"",""0"",""11239""
","
","null","<p></p>","null","","","","","","","","","","","","","","","","","","","","","","",""
"","do_trial","206","1032002","0.0-111.0-0.0","""event"",""trial"",""time""
""fullscreenenter"",""0"",""11239""
","
","
","""event"",""trial"",""time""
""fullscreenenter"",""0"",""11239""
","
","725","","","","","","","","50","0,0,1","1","mountain","48","probe-32","0.12898533728268244","0.05158944804084552","0.5188659905168226","0","","","","","","","",""
"","html-keyboard-response","207","1033007","0.0-111.0-1.0","""event"",""trial"",""time""
""fullscreenenter"",""0"",""11239""
","
","
","""event"",""trial"",""time""
""fullscreenenter"",""0"",""11239""
","
","null","<p></p>","null","","","","","","","","","","","","","","","","","","","","","","",""
"","do_trial","208","1038159","0.0-112.0-0.0","""event"",""trial"",""time""
""fullscreenenter"",""0"",""11239""
","
","
","""event"",""trial"",""time""
""fullscreenenter"",""0"",""11239""
","
","607.5","","","","","","","","49","0,0,0","1","mountain","49","probe-120","0.0838298783468865","0.052129100390579185","0.5621319058321229","0","","","","","","","",""
"","html-keyboard-response","209","1039165","0.0-112.0-1.0","""event"",""trial"",""time""
""fullscreenenter"",""0"",""11239""
","
","
","""event"",""trial"",""time""
""fullscreenenter"",""0"",""11239""
","
","null","<p></p>","null","","","","","","","","","","","","","","","","","","","","","","",""
"","do_trial","210","1044152","0.0-113.0-0.0","""event"",""trial"",""time""
""fullscreenenter"",""0"",""11239""
","
","
","""event"",""trial"",""time""
""fullscreenenter"",""0"",""11239""
","
","442.90000000596046","","","","","","","","50","0,0,1","1","mountain","50","probe-45","0.22626801906718008","0.1864544508481093","0.7101031137744065","0","","","","","","","",""
"","html-keyboard-response","211","1045158","0.0-113.0-1.0","""event"",""trial"",""time""
""fullscreenenter"",""0"",""11239""
","
","
","""event"",""trial"",""time""
""fullscreenenter"",""0"",""11239""
","
","null","<p></p>","null","","","","","","","","","","","","","","","","","","","","","","",""
"","do_trial","212","1050169","0.0-114.0-0.0","""event"",""trial"",""time""
""fullscreenenter"",""0"",""11239""
","
","
","""event"",""trial"",""time""
""fullscreenenter"",""0"",""11239""
","
","466.19999998807907","","","","","","","","51","1,0,1","1","mountain","51","probe-78","0.2173015125057758","0.06555321498143316","0.5626172287985121","1","","","","","","","",""
"","html-keyboard-response","213","1051175","0.0-114.0-1.0","""event"",""trial"",""time""
""fullscreenenter"",""0"",""11239""
","
","
","""event"",""trial"",""time""
""fullscreenenter"",""0"",""11239""
","
","null","<p></p>","null","","","","","","","","","","","","","","","","","","","","","","",""
"","do_trial","214","1056067","0.0-115.0-0.0","""event"",""trial"",""time""
""fullscreenenter"",""0"",""11239""
","
","
","""event"",""trial"",""time""
""fullscreenenter"",""0"",""11239""
","
","347.40000000596046","","","","","","","","51","0,0,0","1","mountain","52","probe-09","0.185059551722793","0.11826751421166364","0.4858173189705694","0","","","","","","","",""
"","html-keyboard-response","215","1057073","0.0-115.0-1.0","""event"",""trial"",""time""
""fullscreenenter"",""0"",""11239""
","
","
","""event"",""trial"",""time""
""fullscreenenter"",""0"",""11239""
","
","null","<p></p>","null","","","","","","","","","","","","","","","","","","","","","","",""
"","do_trial","216","1061928","0.0-116.0-0.0","""event"",""trial"",""time""
""fullscreenenter"",""0"",""11239""
","
","
","""event"",""trial"",""time""
""fullscreenenter"",""0"",""11239""
","
","313.80000001192093","","","","","","","","51","0,0,1","1","mountain","53","probe-177","0.2337064896952397","0.13545509201928022","0.5684334170088178","1","","","","","","","",""
"","html-keyboard-response","217","1062935","0.0-116.0-1.0","""event"",""trial"",""time""
""fullscreenenter"",""0"",""11239""
","
","
","""event"",""trial"",""time""
""fullscreenenter"",""0"",""11239""
","
","null","<p></p>","null","","","","","","","","","","","","","","","","","","","","","","",""
"","do_trial","218","1067982","0.0-117.0-0.0","""event"",""trial"",""time""
""fullscreenenter"",""0"",""11239""
","
","
","""event"",""trial"",""time""
""fullscreenenter"",""0"",""11239""
","
","502.19999998807907","","","","","","","","51","1,0,1","1","mountain","54","probe-28","0.253348880162951","0.15715703829075314","0.5592753919727858","1","","","","","","","",""
"","html-keyboard-response","219","1068989","0.0-117.0-1.0","""event"",""trial"",""time""
""fullscreenenter"",""0"",""11239""
","
","
","""event"",""trial"",""time""
""fullscreenenter"",""0"",""11239""
","
","null","<p></p>","null","","","","","","","","","","","","","","","","","","","","","","",""
"","do_trial","220","1074007","0.0-118.0-0.0","""event"",""trial"",""time""
""fullscreenenter"",""0"",""11239""
","
","
","""event"",""trial"",""time""
""fullscreenenter"",""0"",""11239""
","
","472.80000001192093","","","","","","","","51","0,0,0","1","mountain","55","probe-217","0.34679968021320884","0.12516565031686425","0.5958745826838672","0","","","","","","","",""
"","html-keyboard-response","221","1075014","0.0-118.0-1.0","""event"",""trial"",""time""
""fullscreenenter"",""0"",""11239""
","
","
","""event"",""trial"",""time""
""fullscreenenter"",""0"",""11239""
","
","null","<p></p>","null","","","","","","","","","","","","","","","","","","","","","","",""
"","do_trial","222","1080142","0.0-119.0-0.0","""event"",""trial"",""time""
""fullscreenenter"",""0"",""11239""
","
","
","""event"",""trial"",""time""
""fullscreenenter"",""0"",""11239""
","
","585.2999999821186","","","","","","","","51","0,0,0","1","mountain","56","probe-123","0.285336073674772","0.07275880669903537","0.5957487582903356","0","","","","","","","",""
"","html-keyboard-response","223","1081149","0.0-119.0-1.0","""event"",""trial"",""time""
""fullscreenenter"",""0"",""11239""
","
","
","""event"",""trial"",""time""
""fullscreenenter"",""0"",""11239""
","
","null","<p></p>","null","","","","","","","","","","","","","","","","","","","","","","",""
"","do_trial","224","1086346","0.0-120.0-0.0","""event"",""trial"",""time""
""fullscreenenter"",""0"",""11239""
","
","
","""event"",""trial"",""time""
""fullscreenenter"",""0"",""11239""
","
","657","","","","","","","","51","0,1,0","1","mountain","57","probe-41","0.29683880437850524","0.2375599373876242","0.6647235351659155","0","","","","","","","",""
"","html-keyboard-response","225","1087349","0.0-120.0-1.0","""event"",""trial"",""time""
""fullscreenenter"",""0"",""11239""
","
","
","""event"",""trial"",""time""
""fullscreenenter"",""0"",""11239""
","
","null","<p></p>","null","","","","","","","","","","","","","","","","","","","","","","",""
"","do_trial","226","1092466","0.0-121.0-0.0","""event"",""trial"",""time""
""fullscreenenter"",""0"",""11239""
","
","
","""event"",""trial"",""time""
""fullscreenenter"",""0"",""11239""
","
","572.2000000178814","","","","","","","","49","0,0,1","1","mountain","58","probe-33","0.3607106633421921","0.16834740960362413","0.6377972730241598","0","","","","","","","",""
"","html-keyboard-response","227","1093468","0.0-121.0-1.0","""event"",""trial"",""time""
""fullscreenenter"",""0"",""11239""
","
","
","""event"",""trial"",""time""
""fullscreenenter"",""0"",""11239""
","
","null","<p></p>","null","","","","","","","","","","","","","","","","","","","","","","",""
"","do_trial","228","1098817","0.0-122.0-0.0","""event"",""trial"",""time""
""fullscreenenter"",""0"",""11239""
","
","
","""event"",""trial"",""time""
""fullscreenenter"",""0"",""11239""
","
","808.8000000119209","","","","","","","","50","1,0,1","1","mountain","59","probe-205","0.3418242557343816","0.0771879608607192","0.6416470821384681","0","","","","","","","",""
"","html-keyboard-response","229","1099818","0.0-122.0-1.0","""event"",""trial"",""time""
""fullscreenenter"",""0"",""11239""
","
","
","""event"",""trial"",""time""
""fullscreenenter"",""0"",""11239""
","
","null","<p></p>","null","","","","","","","","","","","","","","","","","","","","","","",""
"","do_trial","230","1104701","0.0-123.0-0.0","""event"",""trial"",""time""
""fullscreenenter"",""0"",""11239""
","
","
","""event"",""trial"",""time""
""fullscreenenter"",""0"",""11239""
","
","337.7000000178814","","","","","","","","50","0,0,1","1","mountain","60","probe-135","0.34910931987041754","0.1520609615169994","0.6325456765468923","0","","","","","","","",""
"","html-keyboard-response","231","1105708","0.0-123.0-1.0","""event"",""trial"",""time""
""fullscreenenter"",""0"",""11239""
","
","
","""event"",""trial"",""time""
""fullscreenenter"",""0"",""11239""
","
","null","<p></p>","null","","","","","","","","","","","","","","","","","","","","","","",""
"","do_trial","232","1110608","0.0-124.0-0.0","""event"",""trial"",""time""
""fullscreenenter"",""0"",""11239""
","
","
","""event"",""trial"",""time""
""fullscreenenter"",""0"",""11239""
","
","358.7999999821186","","","","","","","","51","0,1,0","1","mountain","61","probe-53","0.24148618941948605","0.10859838468425853","0.6586993321177017","0","","","","","","","",""
"","html-keyboard-response","233","1111613","0.0-124.0-1.0","""event"",""trial"",""time""
""fullscreenenter"",""0"",""11239""
","
","
","""event"",""trial"",""time""
""fullscreenenter"",""0"",""11239""
","
","null","<p></p>","null","","","","","","","","","","","","","","","","","","","","","","",""
"","do_trial","234","1116494","0.0-125.0-0.0","""event"",""trial"",""time""
""fullscreenenter"",""0"",""11239""
","
","
","""event"",""trial"",""time""
""fullscreenenter"",""0"",""11239""
","
","335.60000002384186","","","","","","","","51","0,0,1","1","mountain","62","probe-91","0.24763878923155144","0.13047053227664948","0.6618834874959696","1","","","","","","","",""
"","html-keyboard-response","235","1117501","0.0-125.0-1.0","""event"",""trial"",""time""
""fullscreenenter"",""0"",""11239""
","
","
","""event"",""trial"",""time""
""fullscreenenter"",""0"",""11239""
","
","null","<p></p>","null","","","","","","","","","","","","","","","","","","","","","","",""
"","do_trial","236","1122644","0.0-126.0-0.0","""event"",""trial"",""time""
""fullscreenenter"",""0"",""11239""
","
","
","""event"",""trial"",""time""
""fullscreenenter"",""0"",""11239""
","
","600","","","","","","","","51","0,0,0","1","mountain","63","probe-01","0.1585983760824384","0.09660616326106432","0.6721236944196082","0","","","","","","","",""
"","html-keyboard-response","237","1123651","0.0-126.0-1.0","""event"",""trial"",""time""
""fullscreenenter"",""0"",""11239""
","
","
","""event"",""trial"",""time""
""fullscreenenter"",""0"",""11239""
","
","null","<p></p>","null","","","","","","","","","","","","","","","","","","","","","","",""
"","do_trial","238","1128518","0.0-127.0-0.0","""event"",""trial"",""time""
""fullscreenenter"",""0"",""11239""
","
","
","""event"",""trial"",""time""
""fullscreenenter"",""0"",""11239""
","
","321.09999999403954","","","","","","","","51","0,0,1","1","mountain","64","probe-24","0.1478695910956391","0.13837550922946634","0.8793512463236257","1","","","","","","","",""
"","html-keyboard-response","239","1129525","0.0-127.0-1.0","""event"",""trial"",""time""
""fullscreenenter"",""0"",""11239""
","
","
","""event"",""trial"",""time""
""fullscreenenter"",""0"",""11239""
","
","null","<p></p>","null","","","","","","","","","","","","","","","","","","","","","","",""
"","do_trial","240","1134411","0.0-128.0-0.0","""event"",""trial"",""time""
""fullscreenenter"",""0"",""11239""
","
","
","""event"",""trial"",""time""
""fullscreenenter"",""0"",""11239""
","
","343.7999999821186","","","","","","","","51","0,0,1","1","mountain","65","probe-106","0.33105959681436775","0.09499917843916976","0.7873169289815114","1","","","","","","","",""
"","html-keyboard-response","241","1135416","0.0-128.0-1.0","""event"",""trial"",""time""
""fullscreenenter"",""0"",""11239""
","
","
","""event"",""trial"",""time""
""fullscreenenter"",""0"",""11239""
","
","null","<p></p>","null","","","","","","","","","","","","","","","","","","","","","","",""
"","do_trial","242","1140442","0.0-129.0-0.0","""event"",""trial"",""time""
""fullscreenenter"",""0"",""11239""
","
","
","""event"",""trial"",""time""
""fullscreenenter"",""0"",""11239""
","
","482.10000002384186","","","","","","","","51","0,0,0","1","mountain","66","probe-147","0.17933653454564696","0.06929514179009275","0.7667243331463932","0","","","","","","","",""
"","html-keyboard-response","243","1141449","0.0-129.0-1.0","""event"",""trial"",""time""
""fullscreenenter"",""0"",""11239""
","
","
","""event"",""trial"",""time""
""fullscreenenter"",""0"",""11239""
","
","null","<p></p>","null","","","","","","","","","","","","","","","","","","","","","","",""
"","do_trial","244","1146787","0.0-130.0-0.0","""event"",""trial"",""time""
""fullscreenenter"",""0"",""11239""
","
","
","""event"",""trial"",""time""
""fullscreenenter"",""0"",""11239""
","
","797.5","","","","","","","","51","0,0,1","1","mountain","67","probe-38","0.25026556219177837","0.11448318789302679","0.7941237165938199","1","","","","","","","",""
"","html-keyboard-response","245","1147792","0.0-130.0-1.0","""event"",""trial"",""time""
""fullscreenenter"",""0"",""11239""
","
","
","""event"",""trial"",""time""
""fullscreenenter"",""0"",""11239""
","
","null","<p></p>","null","","","","","","","","","","","","","","","","","","","","","","",""
"","do_trial","246","1152798","0.0-131.0-0.0","""event"",""trial"",""time""
""fullscreenenter"",""0"",""11239""
","
","
","""event"",""trial"",""time""
""fullscreenenter"",""0"",""11239""
","
","467.2000000178814","","","","","","","","51","1,0,0","1","mountain","68","probe-160","0.34165772297902103","0.2597840728622341","0.710047485866722","0","","","","","","","",""
"","html-keyboard-response","247","1153805","0.0-131.0-1.0","""event"",""trial"",""time""
""fullscreenenter"",""0"",""11239""
","
","
","""event"",""trial"",""time""
""fullscreenenter"",""0"",""11239""
","
","null","<p></p>","null","","","","","","","","","","","","","","","","","","","","","","",""
"","do_trial","248","1158903","0.0-132.0-0.0","""event"",""trial"",""time""
""fullscreenenter"",""0"",""11239""
","
","
","""event"",""trial"",""time""
""fullscreenenter"",""0"",""11239""
","
","552.5","","","","","","","","51","0,0,0","1","mountain","69","probe-183","0.1247104685719852","0.3274455177591619","0.7478530257065614","0","","","","","","","",""
"","html-keyboard-response","249","1159905","0.0-132.0-1.0","""event"",""trial"",""time""
""fullscreenenter"",""0"",""11239""
","
","
","""event"",""trial"",""time""
""fullscreenenter"",""0"",""11239""
","
","null","<p></p>","null","","","","","","","","","","","","","","","","","","","","","","",""
"","do_bye","250","1161414","0.0-133.0-0.0","""event"",""trial"",""time""
""fullscreenenter"",""0"",""11239""
","
","
","""event"",""trial"",""time""
""fullscreenenter"",""0"",""11239""
","
","null","","","","","","","","null","","","","","","","","","","","","","","","","",""
"","break","251","1245381","0.0-133.0-1.0","""event"",""trial"",""time""
""fullscreenenter"",""0"",""11239""
","
","
","""event"",""trial"",""time""
""fullscreenenter"",""0"",""11239""
","
","83965.40000000596","<div class='center'><p>Time to take a quick break! You have 2 minutes to rest, but you can move on sooner if you'd like.</p><p> Press the <b>space bar</b> to continue.</p></div>","32","","","","","","","","","","","","","","","","","","","","","","",""
"","do_travel","252","1254388","0.0-134.0-0.0","""event"",""trial"",""time""
""fullscreenenter"",""0"",""11239""
","
","
","""event"",""trial"",""time""
""fullscreenenter"",""0"",""11239""
","
","null","","","","","","","","null","","","","","","","","","","","","","","","","",""
"","do_welcome","253","1258398","0.0-134.0-1.0","""event"",""trial"",""time""
""fullscreenenter"",""0"",""11239""
","
","
","""event"",""trial"",""time""
""fullscreenenter"",""0"",""11239""
","
","null","","","","","","","","null","","","","","","","","","","","","","","","","",""
"","do_trial","254","1264131","0.0-135.0-0.0","""event"",""trial"",""time""
""fullscreenenter"",""0"",""11239""
","
","
","""event"",""trial"",""time""
""fullscreenenter"",""0"",""11239""
","
","1186.7999999821186","","","","","","","","49","0,0,1","2","coast","70","probe-134","0.17657370281713092","0.20010178785954902","1","0","","","","","","","",""
"","html-keyboard-response","255","1265137","0.0-135.0-1.0","""event"",""trial"",""time""
""fullscreenenter"",""0"",""11239""
","
","
","""event"",""trial"",""time""
""fullscreenenter"",""0"",""11239""
","
","null","<p></p>","null","","","","","","","","","","","","","","","","","","","","","","",""
"","do_trial","256","1270684","0.0-136.0-0.0","""event"",""trial"",""time""
""fullscreenenter"",""0"",""11239""
","
","
","""event"",""trial"",""time""
""fullscreenenter"",""0"",""11239""
","
","1013","","","","","","","","50","1,0,1","2","coast","71","probe-98","0.20664826105849432","0.23533871204239043","1","0","","","","","","","",""
"","html-keyboard-response","257","1271690","0.0-136.0-1.0","""event"",""trial"",""time""
""fullscreenenter"",""0"",""11239""
","
","
","""event"",""trial"",""time""
""fullscreenenter"",""0"",""11239""
","
","null","<p></p>","null","","","","","","","","","","","","","","","","","","","","","","",""
"","do_trial","258","1276732","0.0-137.0-0.0","""event"",""trial"",""time""
""fullscreenenter"",""0"",""11239""
","
","
","""event"",""trial"",""time""
""fullscreenenter"",""0"",""11239""
","