"success","trial_type","trial_index","time_elapsed","internal_node_id","interactions","blur_events","focus_events","fullscreenenter_events","fullscreenexit_events","rt","stimulus","key_press","subject_id","participant_id","age","gender","prompt","response","choice_outcomes","context_n","context_img_id","trial_n","probe_img_id","pR_red","pR_white","pR_black","outcome","contextArray_ind","validImageProbes","invalidImageProbes","pRew_Red","pRew_White","pRew_Black","availableForMemProbe","choice_blocks"
"true","fullscreen","0","27327","0.0-0.0","""event"",""trial"",""time""
""fullscreenenter"",""0"",""26355""
","
","
","""event"",""trial"",""time""
""fullscreenenter"",""0"",""26355""
","
","","","","","","","","","","","","","","","","","","","","","","","","","",""
"","pavlovia","1","27336","0.0-1.0","""event"",""trial"",""time""
""fullscreenenter"",""0"",""26355""
","
","
","""event"",""trial"",""time""
""fullscreenenter"",""0"",""26355""
","
","","","","","","","","","","","","","","","","","","","","","","","","","",""
"","instruc1","2","72707","0.0-2.0","""event"",""trial"",""time""
""fullscreenenter"",""0"",""26355""
","
","
","""event"",""trial"",""time""
""fullscreenenter"",""0"",""26355""
","
","null","run_exp/static/audio/clip_1_welcome.m4a","null","289","843","15","Female","<div class='center'><p>Welcome! This is the first part of the study. It will last ~30 minutes. In part 1 and part 2 of the study, you are the head captain of a pirate ship traveling around the world to different islands. You will play a few different games throughout these two parts. Here is an overview of them:</p><br><p>Part 1 (today)</p><p>1. Instructions, practice game, and quiz</p><p>2. Pick a pirate game on 6 different islands</p><br><p>Part 2 (tomorrow)</p><p>3. Pick a pirate game and memory game</p><p>4. Where did you see this ship? </p></div>","","","","","","","","","","","","","","","","","",""
"","html-keyboard-response","3","75222","0.0-3.0","""event"",""trial"",""time""
""fullscreenenter"",""0"",""26355""
","
","
","""event"",""trial"",""time""
""fullscreenenter"",""0"",""26355""
","
","2511.7999999523163","<div class='center'><p>Welcome! This is the first part of the study. It will last ~30 minutes. In part 1 and part 2 of the study, you are the head captain of a pirate ship traveling around the world to different islands. You will play a few different games throughout these two parts. Here is an overview of them:</p><br><p>Part 1 (today)</p><p>1. Instructions, practice game, and quiz</p><p>2. Pick a pirate game on 6 different islands</p><br><p>Part 2 (tomorrow)</p><p>3. Pick a pirate game and memory game</p><p>4. Where did you see this ship? </p><p><b>[Press the space bar to continue]</b></p></div>","32","","","","","","","","","","","","","","","","","","","","","","",""
"","instruc2","4","80567","0.0-4.0","""event"",""trial"",""time""
""fullscreenenter"",""0"",""26355""
","
","
","""event"",""trial"",""time""
""fullscreenenter"",""0"",""26355""
","
","null","run_exp/static/audio/clip_2_different_places.m4a","null","","","","","<div class='center'><p>Today, you’ll visit these 6 islands on your journey. You'll be able to see these islands from your ship.</p><p><img src='run_exp/static/images/contexts/all_contexts.png' height='500'></p></div>","","","","","","","","","","","","","","","","","",""
"","html-keyboard-response","5","82166","0.0-5.0","""event"",""trial"",""time""
""fullscreenenter"",""0"",""26355""
","
","
","""event"",""trial"",""time""
""fullscreenenter"",""0"",""26355""
","
","1596.4000000953674","<div class='center'><p>Today, you’ll visit these 6 islands on your journey. You'll be able to see these islands from your ship.</p><p><img src='run_exp/static/images/contexts/all_contexts.png' height='500'></p><p><b>[Press the space bar to continue]</b></p></div>","32","","","","","","","","","","","","","","","","","","","","","","",""
"","instruc3","6","91887","0.0-6.0","""event"",""trial"",""time""
""fullscreenenter"",""0"",""26355""
","
","
","""event"",""trial"",""time""
""fullscreenenter"",""0"",""26355""
","
","null","run_exp/static/audio/clip_3_goal_of_game_1.m4a","null","","","","","<div class='center'><p> The pirates on your ship will rob other ships as they leave the island.</p> These ships have just sold their goods to the islanders, so they will be filled with lots and lots of gold.</p><p><img src='run_exp/static/images/tutorial/ship_center.png' height='400'></p></div>","","","","","","","","","","","","","","","","","",""
"","html-keyboard-response","7","94087","0.0-7.0","""event"",""trial"",""time""
""fullscreenenter"",""0"",""26355""
","
","
","""event"",""trial"",""time""
""fullscreenenter"",""0"",""26355""
","
","2197.7000000476837","<div class='center'><p> The pirates on your ship will rob other ships as they leave the island.</p> These ships have just sold their goods to the islanders, so they will be filled with lots and lots of gold.</p><p><img src='run_exp/static/images/tutorial/ship_center.png' height='400'></p><p><b>[Press the space bar to continue]</b></p></div>","32","","","","","","","","","","","","","","","","","","","","","","",""
"","instruc4","8","122107","0.0-8.0","""event"",""trial"",""time""
""fullscreenenter"",""0"",""26355""
","
","
","""event"",""trial"",""time""
""fullscreenenter"",""0"",""26355""
","
","null","run_exp/static/audio/clip_4_goal_of_game_2.m4a","null","","","","","<div class='center'><p>As the head captain, you do not have to rob any ships yourself. Another pirate will be doing the robbing for you. First, you will choose a pirate to rob the next ship.</p><p><img src='run_exp/static/images/tutorial/pirates_all_crop.png' height='200'></p><p>Then, you'll see if the pirate successfully robbed the ship of their gold. If they were successful, then you'll get a stack of gold coins like this:</p><p><img src='run_exp/static/images/tutorial/reward.png' height='150'></p><p> If they were <b>not</b> successful, then you'll get no gold coins, and you'll see a big red x like this: </p><p><img src='run_exp/static/images/tutorial/reward_no.png' height='150'></p><p> How much bonus money you make is based on how many gold coins you collect.</p><div>","","","","","","","","","","","","","","","","","",""
"","html-keyboard-response","9","123990","0.0-9.0","""event"",""trial"",""time""
""fullscreenenter"",""0"",""26355""
","
","
","""event"",""trial"",""time""
""fullscreenenter"",""0"",""26355""
","
","1880.2999999523163","<div class='center'><p>As the head captain, you do not have to rob any ships yourself. Another pirate will be doing the robbing for you. First, you will choose a pirate to rob the next ship.</p><p><img src='run_exp/static/images/tutorial/pirates_all_crop.png' height='200'></p><p>Then, you'll see if the pirate successfully robbed the ship of their gold. If they were successful, then you'll get a stack of gold coins like this:</p><p><img src='run_exp/static/images/tutorial/reward.png' height='150'></p><p> If they were <b>not</b> successful, then you'll get no gold coins, and you'll see a big red x like this: </p><p><img src='run_exp/static/images/tutorial/reward_no.png' height='150'></p><p> How much bonus money you make is based on how many gold coins you collect.</p<p><b>[Press the space bar to continue]</b></p></div>","32","","","","","","","","","","","","","","","","","","","","","","",""
"","instruc5","10","150031","0.0-10.0","""event"",""trial"",""time""
""fullscreenenter"",""0"",""26355""
","
","
","""event"",""trial"",""time""
""fullscreenenter"",""0"",""26355""
","
","26037.699999928474","run_exp/static/audio/clip_5_probabilistic.m4a","49","","","","","<div class='center'><p>Even the most skilled pirate can not rob EVERY ship.</p><p> Some ships will have very strong protections against pirate attacks.</p><p> Blue beard, here, is very, very good at robbing ships, but he won't be successful every time he tries to rob one.</p><p> You can press the <b>‘1’</b> key on the keyboard to choose him.</p><p> Try choosing him 10 times to see how often he succeeds at robbing a ship. </p><p><img src='run_exp/static/images/tutorial/blue.png' height='500'></p></div>","","","","","","","","","","","","","","","","","",""
"","html-keyboard-response","11","151534","0.0-11.0","""event"",""trial"",""time""
""fullscreenenter"",""0"",""26355""
","
","
","""event"",""trial"",""time""
""fullscreenenter"",""0"",""26355""
","
","null","<div class='center'><p><img src='run_exp/static/images/tutorial/blue_win.png' height='500'></p></div>","null","","","","","","","","","","","","","","","","","","","","","","",""
"","html-keyboard-response","12","154477","0.0-12.0","""event"",""trial"",""time""
""fullscreenenter"",""0"",""26355""
","
","
","""event"",""trial"",""time""
""fullscreenenter"",""0"",""26355""
","
","2940.899999976158","<div class='center'><img src='run_exp/static/images/tutorial/blue.png' height='500'></p></div>","49","","","","","","","","","","","","","","","","","","","","","","",""
"","html-keyboard-response","13","155984","0.0-13.0","""event"",""trial"",""time""
""fullscreenenter"",""0"",""26355""
","
","
","""event"",""trial"",""time""
""fullscreenenter"",""0"",""26355""
","
","null","<div class='center'><p><img src='run_exp/static/images/tutorial/blue_win.png' height='500'></p></div>","null","","","","","","","","","","","","","","","","","","","","","","",""
"","html-keyboard-response","14","159757","0.0-14.0","""event"",""trial"",""time""
""fullscreenenter"",""0"",""26355""
","
","
","""event"",""trial"",""time""
""fullscreenenter"",""0"",""26355""
","
","3771.899999976158","<div class='center'><img src='run_exp/static/images/tutorial/blue.png' height='500'></p></div>","49","","","","","","","","","","","","","","","","","","","","","","",""
"","html-keyboard-response","15","161268","0.0-15.0","""event"",""trial"",""time""
""fullscreenenter"",""0"",""26355""
","
","
","""event"",""trial"",""time""
""fullscreenenter"",""0"",""26355""
","
","null","<div class='center'><p><img src='run_exp/static/images/tutorial/blue_win.png' height='500'></p></div>","null","","","","","","","","","","","","","","","","","","","","","","",""
"","html-keyboard-response","16","162295","0.0-16.0","""event"",""trial"",""time""
""fullscreenenter"",""0"",""26355""
","
","
","""event"",""trial"",""time""
""fullscreenenter"",""0"",""26355""
","
","1024.5","<div class='center'><img src='run_exp/static/images/tutorial/blue.png' height='500'></p></div>","49","","","","","","","","","","","","","","","","","","","","","","",""
"","html-keyboard-response","17","163800","0.0-17.0","""event"",""trial"",""time""
""fullscreenenter"",""0"",""26355""
","
","
","""event"",""trial"",""time""
""fullscreenenter"",""0"",""26355""
","
","null","<div class='center'><p><img src='run_exp/static/images/tutorial/blue_no_win.png' height='500'></p></div>","null","","","","","","","","","","","","","","","","","","","","","","",""
"","html-keyboard-response","18","165820","0.0-18.0","""event"",""trial"",""time""
""fullscreenenter"",""0"",""26355""
","
","
","""event"",""trial"",""time""
""fullscreenenter"",""0"",""26355""
","
","2018.3000000715256","<div class='center'><img src='run_exp/static/images/tutorial/blue.png' height='500'></p></div>","49","","","","","","","","","","","","","","","","","","","","","","",""
"","html-keyboard-response","19","167328","0.0-19.0","""event"",""trial"",""time""
""fullscreenenter"",""0"",""26355""
","
","
","""event"",""trial"",""time""
""fullscreenenter"",""0"",""26355""
","
","null","<div class='center'><p><img src='run_exp/static/images/tutorial/blue_win.png' height='500'></p></div>","null","","","","","","","","","","","","","","","","","","","","","","",""
"","html-keyboard-response","20","167876","0.0-20.0","""event"",""trial"",""time""
""fullscreenenter"",""0"",""26355""
","
","
","""event"",""trial"",""time""
""fullscreenenter"",""0"",""26355""
","
","546.2000000476837","<div class='center'><img src='run_exp/static/images/tutorial/blue.png' height='500'></p></div>","49","","","","","","","","","","","","","","","","","","","","","","",""
"","html-keyboard-response","21","169392","0.0-21.0","""event"",""trial"",""time""
""fullscreenenter"",""0"",""26355""
","
","
","""event"",""trial"",""time""
""fullscreenenter"",""0"",""26355""
","
","null","<div class='center'><p><img src='run_exp/static/images/tutorial/blue_win.png' height='500'></p></div>","null","","","","","","","","","","","","","","","","","","","","","","",""
"","html-keyboard-response","22","170157","0.0-22.0","""event"",""trial"",""time""
""fullscreenenter"",""0"",""26355""
","
","
","""event"",""trial"",""time""
""fullscreenenter"",""0"",""26355""
","
","762.5","<div class='center'><img src='run_exp/static/images/tutorial/blue.png' height='500'></p></div>","49","","","","","","","","","","","","","","","","","","","","","","",""
"","html-keyboard-response","23","171670","0.0-23.0","""event"",""trial"",""time""
""fullscreenenter"",""0"",""26355""
","
","
","""event"",""trial"",""time""
""fullscreenenter"",""0"",""26355""
","
","null","<div class='center'><p><img src='run_exp/static/images/tutorial/blue_win.png' height='500'></p></div>","null","","","","","","","","","","","","","","","","","","","","","","",""
"","html-keyboard-response","24","172149","0.0-24.0","""event"",""trial"",""time""
""fullscreenenter"",""0"",""26355""
","
","
","""event"",""trial"",""time""
""fullscreenenter"",""0"",""26355""
","
","476.5","<div class='center'><img src='run_exp/static/images/tutorial/blue.png' height='500'></p></div>","49","","","","","","","","","","","","","","","","","","","","","","",""
"","html-keyboard-response","25","173654","0.0-25.0","""event"",""trial"",""time""
""fullscreenenter"",""0"",""26355""
","
","
","""event"",""trial"",""time""
""fullscreenenter"",""0"",""26355""
","
","null","<div class='center'><p><img src='run_exp/static/images/tutorial/blue_no_win.png' height='500'></p></div>","null","","","","","","","","","","","","","","","","","","","","","","",""
"","html-keyboard-response","26","174207","0.0-26.0","""event"",""trial"",""time""
""fullscreenenter"",""0"",""26355""
","
","
","""event"",""trial"",""time""
""fullscreenenter"",""0"",""26355""
","
","550.4000000953674","<div class='center'><img src='run_exp/static/images/tutorial/blue.png' height='500'></p></div>","49","","","","","","","","","","","","","","","","","","","","","","",""
"","html-keyboard-response","27","175717","0.0-27.0","""event"",""trial"",""time""
""fullscreenenter"",""0"",""26355""
","
","
","""event"",""trial"",""time""
""fullscreenenter"",""0"",""26355""
","
","null","<div class='center'><p><img src='run_exp/static/images/tutorial/blue_win.png' height='500'></p></div>","null","","","","","","","","","","","","","","","","","","","","","","",""
"","html-keyboard-response","28","176277","0.0-28.0","""event"",""trial"",""time""
""fullscreenenter"",""0"",""26355""
","
","
","""event"",""trial"",""time""
""fullscreenenter"",""0"",""26355""
","
","558.8999999761581","<div class='center'><img src='run_exp/static/images/tutorial/blue.png' height='500'></p></div>","49","","","","","","","","","","","","","","","","","","","","","","",""
"","html-keyboard-response","29","177779","0.0-29.0","""event"",""trial"",""time""
""fullscreenenter"",""0"",""26355""
","
","
","""event"",""trial"",""time""
""fullscreenenter"",""0"",""26355""
","
","null","<div class='center'><p><img src='run_exp/static/images/tutorial/blue_win.png' height='500'></p></div>","null","","","","","","","","","","","","","","","","","","","","","","",""
"","instruc6","30","183397","0.0-30.0","""event"",""trial"",""time""
""fullscreenenter"",""0"",""26355""
","
","
","""event"",""trial"",""time""
""fullscreenenter"",""0"",""26355""
","
","null","run_exp/static/audio/clip_6_blue_beard_outcome.m4a","null","","","","","<div class='center'><p> See, he succeeded in robbing the ships most of the time but not every time. </p></div>","","","","","","","","","","","","","","","","","",""
"","html-keyboard-response","31","184807","0.0-31.0","""event"",""trial"",""time""
""fullscreenenter"",""0"",""26355""
","
","
","""event"",""trial"",""time""
""fullscreenenter"",""0"",""26355""
","
","1408.2999999523163","<div class='center'><p> See, he succeeded in robbing the ships most of the time but not every time. </p><p><b>[Press the space bar to continue]</b></p></div>","32","","","","","","","","","","","","","","","","","","","","","","",""
"","audio-keyboard-response","32","201211","0.0-32.0","""event"",""trial"",""time""
""fullscreenenter"",""0"",""26355""
","
","
","""event"",""trial"",""time""
""fullscreenenter"",""0"",""26355""
","
","16403.600000023842","run_exp/static/audio/clip_7_pick_pirate.m4a","51","","","","","","","","","","","","","","","","","","","","","","",""
"","audio-keyboard-response","33","209538","0.0-33.0-0.0","""event"",""trial"",""time""
""fullscreenenter"",""0"",""26355""
","
","
","""event"",""trial"",""time""
""fullscreenenter"",""0"",""26355""
","
","8322.399999976158","run_exp/static/audio/clip_8_chosen_pirate_win.m4a","32","","","","","","","","","","","","","","","","","","","","","","",""
"","audio-keyboard-response","34","213532","0.0-33.0-1.0","""event"",""trial"",""time""
""fullscreenenter"",""0"",""26355""
","
","
","""event"",""trial"",""time""
""fullscreenenter"",""0"",""26355""
","
","3990.0999999046326","run_exp/static/audio/clip_9_pick_a_pirate_again.m4a","49","","","","","","","","","","","","","","","","","","","","","","",""
"","audio-keyboard-response","35","219026","0.0-34.0-0.0","""event"",""trial"",""time""
""fullscreenenter"",""0"",""26355""
","
","
","""event"",""trial"",""time""
""fullscreenenter"",""0"",""26355""
","
","5489.599999904633","run_exp/static/audio/clip_10_chosen_pirate_loss.m4a","32","","","","","","","","","","","","","","","","","","","","","","",""
"","instruc9","36","224554","0.0-35.0-0.0","""event"",""trial"",""time""
""fullscreenenter"",""0"",""26355""
","
","
","""event"",""trial"",""time""
""fullscreenenter"",""0"",""26355""
","
","null","run_exp/static/audio/clip_11_time_out.m4a","null","","","","","<div class='center'><p>If you don’t make your choice fast enough, you’ll have to wait a few seconds before you can make another one. </p><p><img src='run_exp/static/images/miscellaneous/hurry_up.png' height='500'></p></div>","","","","","","","","","","","","","","","","","",""
"","html-keyboard-response","37","226180","0.0-35.0-1.0","""event"",""trial"",""time""
""fullscreenenter"",""0"",""26355""
","
","
","""event"",""trial"",""time""
""fullscreenenter"",""0"",""26355""
","
","1623.5","<div class='center'><p>If you don’t make your choice fast enough, you’ll have to wait a few seconds before you can make another one. </p><p><img src='run_exp/static/images/miscellaneous/hurry_up.png' height='500'></p><p><b>[Press the space bar to continue]</b></p></div>","32","","","","","","","","","","","","","","","","","","","","","","",""
"","instruc10","38","265297","0.0-35.0-2.0","""event"",""trial"",""time""
""fullscreenenter"",""0"",""26355""
","
","
","""event"",""trial"",""time""
""fullscreenenter"",""0"",""26355""
","
","null","run_exp/static/audio/clip_12_probe.m4a","null","","","","","<div class='center'><p>Once you've chosen a pirate, you’ll be shown the ship they are robbing. You will never rob the same ship twice. Ships can be told apart from one another by the image on them. These are the goods that they sell. See, this ship has a travel mug on it. </p><p> You’ll have to remember which island you saw each ship on. You will win more gold coins and hence more bonus money if you remember correctly! To help you remember, you can imagine a story. For example, here, you could imagine a mug full of water in the desert. Or, as another example, if on the forest island, your pirate robbed a ship with an apple on it, you could imagine an apple falling from a tree in the forest. </p><p><img src='run_exp/static/images/tutorial/example_probe.png' height='500'></p></div>","","","","","","","","","","","","","","","","","",""
"","html-keyboard-response","39","266709","0.0-35.0-3.0","""event"",""trial"",""time""
""fullscreenenter"",""0"",""26355""
","
","
","""event"",""trial"",""time""
""fullscreenenter"",""0"",""26355""
","
","1410.1999999284744","<div class='center'><p>Once you've chosen a pirate, you’ll be shown the ship they are robbing. You will never rob the same ship twice. Ships can be told apart from one another by the image on them. These are the goods that they sell. See, this ship has a travel mug on it. </p><p> You’ll have to remember which island you saw each ship on. You will win more gold coins and hence more bonus money if you remember correctly! To help you remember, you can imagine a story. For example, here, you could imagine a mug full of water in the desert. Or, as another example, if on the forest island, your pirate robbed a ship with an apple on it, you could imagine an apple falling from a tree in the forest. </p><p><img src='run_exp/static/images/tutorial/example_probe.png' height='500'></p><p><b>[Press the space bar to continue]</b></p></div>","32","","","","","","","","","","","","","","","","","","","","","","",""
"","instruc11","40","283138","0.0-35.0-4.0","""event"",""trial"",""time""
""fullscreenenter"",""0"",""26355""
","
","
","""event"",""trial"",""time""
""fullscreenenter"",""0"",""26355""
","
","null","run_exp/static/audio/clip_13_changepoint.m4a","null","","","","","<div class='center'><p>How successful a pirate is at robbing ships will depend on the island you’re on.</p><p> A pirate may have visited this island many times before and gained a lot of practice robbing ships there.</p><p>So, they’re more likely to be successful than a pirate who has never visited the island before.</p></div>","","","","","","","","","","","","","","","","","",""
"","html-keyboard-response","41","284349","0.0-35.0-5.0","""event"",""trial"",""time""
""fullscreenenter"",""0"",""26355""
","
","
","""event"",""trial"",""time""
""fullscreenenter"",""0"",""26355""
","
","1210","<div class='center'><p>How successful a pirate is at robbing ships will depend on the island you’re on.</p><p> A pirate may have visited this island many times before and gained a lot of practice robbing ships there.</p><p>So, they’re more likely to be successful than a pirate who has never visited the island before.</p><p><b>[Press the space bar to continue]</b></p></div>","32","","","","","","","","","","","","","","","","","","","","","","",""
"","instruc12","42","325477","0.0-35.0-6.0","""event"",""trial"",""time""
""fullscreenenter"",""0"",""26355""
","
","
","""event"",""trial"",""time""
""fullscreenenter"",""0"",""26355""
","
","null","run_exp/static/audio/clip_14_drift.m4a","null","","","","","<div class='center'><p>How successful a pirate is at robbing ships can also change over the time spent on the island. </p><p> Ships may hear from islanders about the pirates coming and will improve their protections against the attack. This may make it harder to rob them.</p><p> Ships may also become lazy and weaken the strength of their protections. This may make it easier to rob them.</p><br><p>Things are always changing on the high seas! So, try your best to pay attention!</p><p><img src='run_exp/static/images/tutorial/contingency.png' height='500'></p></div>","","","","","","","","","","","","","","","","","",""
"","html-keyboard-response","43","326413","0.0-35.0-7.0","""event"",""trial"",""time""
""fullscreenenter"",""0"",""26355""
","
","
","""event"",""trial"",""time""
""fullscreenenter"",""0"",""26355""
","
","934.2000000476837","<div class='center'><p>How successful a pirate is at robbing ships can also change over the time spent on the island. </p><p> Ships may hear from islanders about the pirates coming and will improve their protections against the attack. This may make it harder to rob them.</p><p> Ships may also become lazy and weaken the strength of their protections. This may make it easier to rob them.</p><br><p>Things are always changing on the high seas! So, try your best to pay attention!</p><p><img src='run_exp/static/images/tutorial/contingency.png' height='500'></p><p><b>[Press the space bar to continue]</b></p></div>","32","","","","","","","","","","","","","","","","","","","","","","",""
"","instruc13","44","361637","0.0-35.0-8.0","""event"",""trial"",""time""
""fullscreenenter"",""0"",""26355""
","
","
","""event"",""trial"",""time""
""fullscreenenter"",""0"",""26355""
","
","null","run_exp/static/audio/clip_15_summary.m4a","null","","","","","<div class='center'><p>Let's go over the instructions quickly again. You have two important things to do: </p><b><p> 1. Pick the pirate who is the best at robbing ships on the current island. </p></b><b><p> 2. Remember on which island a ship was robbed.</p> </b><p>The amount of bonus money you can win depends on both.</p><p><br><p>Let’s try a practice game. The game will start by showing you the pirates. First, pick a pirate using the <b> 1, 2, 3 </b> keys on your keyboard. When you are shown a ship, try to remember which island you’re on by making up a story.</p><p>This is just a practice game, so you’re not playing for money. </p><p> Good luck! This game will be very difficult but try your best!</p></div>","","","","","","","","","","","","","","","","","",""
"","html-keyboard-response","45","362598","0.0-35.0-9.0","""event"",""trial"",""time""
""fullscreenenter"",""0"",""26355""
","
","
","""event"",""trial"",""time""
""fullscreenenter"",""0"",""26355""
","
","958.3999999761581","<div class='center'><p>Let's go over the instructions quickly again. You have two important things to do: </p><b><p> 1. Pick the pirate who is the best at robbing ships on the current island. </p></b><b><p> 2. Remember on which island a ship was robbed.</p> </b><p>The amount of bonus money you can win depends on both.</p><p><br><p>Let’s try a practice game. The game will start by showing you the pirates. First, pick a pirate using the <b> 1, 2, 3 </b> keys on your keyboard. When you are shown a ship, try to remember which island you’re on by making up a story.</p><p>This is just a practice game, so you’re not playing for money. </p><p> Good luck! This game will be very difficult but try your best!</p><p><b>[Press the space bar to continue]</b></p></div>","32","","","","","","","","","","","","","","","","","","","","","","",""
"","do_welcome","46","366626","0.0-35.0-10.0","""event"",""trial"",""time""
""fullscreenenter"",""0"",""26355""
","
","
","""event"",""trial"",""time""
""fullscreenenter"",""0"",""26355""
","
","null","","","","","","","","null","","","","","","","","","","","","","","","","",""
"","do_trial","47","372665","0.0-35.0-11.0","""event"",""trial"",""time""
""fullscreenenter"",""0"",""26355""
","
","
","""event"",""trial"",""time""
""fullscreenenter"",""0"",""26355""
","
","null","","","","","","","","null","1,0,0","","","","","","","","","","","","","","","",""
"","html-keyboard-response","48","373676","0.0-36.0-0.0","""event"",""trial"",""time""
""fullscreenenter"",""0"",""26355""
","
","
","""event"",""trial"",""time""
""fullscreenenter"",""0"",""26355""
","
","null","<p></p>","null","","","","","","","","","","","","","","","","","","","","","","",""
"","do_trial","49","378838","0.0-36.0-1.0","""event"",""trial"",""time""
""fullscreenenter"",""0"",""26355""
","
","
","""event"",""trial"",""time""
""fullscreenenter"",""0"",""26355""
","
","649.6999999284744","","","","","","","","49","1,0,0","","","","","","","","","","","","","","","",""
"","html-keyboard-response","50","379840","0.0-37.0-0.0","""event"",""trial"",""time""
""fullscreenenter"",""0"",""26355""
","
","
","""event"",""trial"",""time""
""fullscreenenter"",""0"",""26355""
","
","null","<p></p>","null","","","","","","","","","","","","","","","","","","","","","","",""
"","do_trial","51","385611","0.0-37.0-1.0","""event"",""trial"",""time""
""fullscreenenter"",""0"",""26355""
","
","
","""event"",""trial"",""time""
""fullscreenenter"",""0"",""26355""
","
","1257.6000000238419","","","","","","","","49","1,1,0","","","","","","","","","","","","","","","",""
"","html-keyboard-response","52","386614","0.0-38.0-0.0","""event"",""trial"",""time""
""fullscreenenter"",""0"",""26355""
","
","
","""event"",""trial"",""time""
""fullscreenenter"",""0"",""26355""
","
","null","<p></p>","null","","","","","","","","","","","","","","","","","","","","","","",""
"","do_trial","53","393658","0.0-38.0-1.0","""event"",""trial"",""time""
""fullscreenenter"",""0"",""26355""
","
","
","""event"",""trial"",""time""
""fullscreenenter"",""0"",""26355""
","
","2516.5","","","","","","","","49","1,0,1","","","","","","","","","","","","","","","",""
"","html-keyboard-response","54","394670","0.0-39.0-0.0","""event"",""trial"",""time""
""fullscreenenter"",""0"",""26355""
","
","
","""event"",""trial"",""time""
""fullscreenenter"",""0"",""26355""
","
","null","<p></p>","null","","","","","","","","","","","","","","","","","","","","","","",""
"","do_trial","55","400048","0.0-39.0-1.0","""event"",""trial"",""time""
""fullscreenenter"",""0"",""26355""
","
","
","""event"",""trial"",""time""
""fullscreenenter"",""0"",""26355""
","
","852.5999999046326","","","","","","","","49","0,1,0","","","","","","","","","","","","","","","",""
"","html-keyboard-response","56","401064","0.0-40.0-0.0","""event"",""trial"",""time""
""fullscreenenter"",""0"",""26355""
","
","
","""event"",""trial"",""time""
""fullscreenenter"",""0"",""26355""
","
","null","<p></p>","null","","","","","","","","","","","","","","","","","","","","","","",""
"","do_trial","57","406319","0.0-40.0-1.0","""event"",""trial"",""time""
""fullscreenenter"",""0"",""26355""
","
","
","""event"",""trial"",""time""
""fullscreenenter"",""0"",""26355""
","
","730.8999999761581","","","","","","","","49","1,0,0","","","","","","","","","","","","","","","",""
"","do_bye","58","407833","0.0-41.0-0.0","""event"",""trial"",""time""
""fullscreenenter"",""0"",""26355""
","
","
","""event"",""trial"",""time""
""fullscreenenter"",""0"",""26355""
","
","null","","","","","","","","null","","","","","","","","","","","","","","","","",""
"","do_travel","59","416841","0.0-41.0-1.0","""event"",""trial"",""time""
""fullscreenenter"",""0"",""26355""
","
","
","""event"",""trial"",""time""
""fullscreenenter"",""0"",""26355""
","
","null","","","","","","","","null","","","","","","","","","","","","","","","","",""
"","do_welcome","60","420865","0.0-41.0-2.0","""event"",""trial"",""time""
""fullscreenenter"",""0"",""26355""
","
","
","""event"",""trial"",""time""
""fullscreenenter"",""0"",""26355""
","
","null","","","","","","","","null","","","","","","","","","","","","","","","","",""
"","do_trial","61","427192","0.0-41.0-3.0","""event"",""trial"",""time""
""fullscreenenter"",""0"",""26355""
","
","
","""event"",""trial"",""time""
""fullscreenenter"",""0"",""26355""
","
","1811","","","","","","","","49","1,0,0","","","","","","","","","","","","","","","",""
"","html-keyboard-response","62","428211","0.0-42.0-0.0","""event"",""trial"",""time""
""fullscreenenter"",""0"",""26355""
","
","
","""event"",""trial"",""time""
""fullscreenenter"",""0"",""26355""
","
","null","<p></p>","null","","","","","","","","","","","","","","","","","","","","","","",""
"","do_trial","63","434164","0.0-42.0-1.0","""event"",""trial"",""time""
""fullscreenenter"",""0"",""26355""
","
","
","""event"",""trial"",""time""
""fullscreenenter"",""0"",""26355""
","
","1438.7999999523163","","","","","","","","49","1,0,1","","","","","","","","","","","","","","","",""
"","html-keyboard-response","64","435173","0.0-43.0-0.0","""event"",""trial"",""time""
""fullscreenenter"",""0"",""26355""
","
","
","""event"",""trial"",""time""
""fullscreenenter"",""0"",""26355""
","
","null","<p></p>","null","","","","","","","","","","","","","","","","","","","","","","",""
"","do_trial","65","440553","0.0-43.0-1.0","""event"",""trial"",""time""
""fullscreenenter"",""0"",""26355""
","
","
","""event"",""trial"",""time""
""fullscreenenter"",""0"",""26355""
","
","855.1999999284744","","","","","","","","49","1,1,0","","","","","","","","","","","","","","","",""
"","html-keyboard-response","66","441580","0.0-44.0-0.0","""event"",""trial"",""time""
""fullscreenenter"",""0"",""26355""
","
","
","""event"",""trial"",""time""
""fullscreenenter"",""0"",""26355""
","
","null","<p></p>","null","","","","","","","","","","","","","","","","","","","","","","",""
"","do_trial","67","446733","0.0-44.0-1.0","""event"",""trial"",""time""
""fullscreenenter"",""0"",""26355""
","
","
","""event"",""trial"",""time""
""fullscreenenter"",""0"",""26355""
","
","639.8000000715256","","","","","","","","49","0,0,1","","","","","","","","","","","","","","","",""
"","html-keyboard-response","68","447746","0.0-45.0-0.0","""event"",""trial"",""time""
""fullscreenenter"",""0"",""26355""
","
","
","""event"",""trial"",""time""
""fullscreenenter"",""0"",""26355""
","
","null","<p></p>","null","","","","","","","","","","","","","","","","","","","","","","",""
"","do_trial","69","452921","0.0-45.0-1.0","""event"",""trial"",""time""
""fullscreenenter"",""0"",""26355""
","
","
","""event"",""trial"",""time""
""fullscreenenter"",""0"",""26355""
","
","659.1000000238419","","","","","","","","49","1,0,1","","","","","","","","","","","","","","","",""
"","html-keyboard-response","70","456422","0.0-46.0-0.0","""event"",""trial"",""time""
""fullscreenenter"",""0"",""26355""
","
","
","""event"",""trial"",""time""
""fullscreenenter"",""0"",""26355""
","
","3498","<div class='center'><p><img src='run_exp/static/images/tutorial/prac_best_pirate.png'  height='500'></p></div>","49","","","","","","","","","","","","","","","","","","","","","","",""
"","html-keyboard-response","71","458800","0.0-47.0-0.0","""event"",""trial"",""time""
""fullscreenenter"",""0"",""26355""
","
","
","""event"",""trial"",""time""
""fullscreenenter"",""0"",""26355""
","
","2375.5999999046326","<div class='center'><p>That's correct! Red beard was the best.</p><p><b>[Press the space bar to continue]</b></p></div>","32","","","","","","","","","","","","","","","","","","","","","","",""
"","html-keyboard-response","72","471296","0.0-47.0-1.0","""event"",""trial"",""time""
""fullscreenenter"",""0"",""26355""
","
","
","""event"",""trial"",""time""
""fullscreenenter"",""0"",""26355""
","
","12494.700000047684","<div class='center'><p><img src='run_exp/static/images/tutorial/prac_source.png'  height='500'></p></div>","50","","","","","","","","","","","","","","","","","","","","","","",""
"","html-keyboard-response","73","473598","0.0-48.0-0.0","""event"",""trial"",""time""
""fullscreenenter"",""0"",""26355""
","
","
","""event"",""trial"",""time""
""fullscreenenter"",""0"",""26355""
","
","2299.7999999523163","<div class='center'><p>That's correct! You saw this ship on the cavern island.</p><p><b>[Press the space bar to continue]</b></p></div>","32","","","","","","","","","","","","","","","","","","","","","","",""
"","quiz_beginning","74","485014","0.0-48.0-1.0","""event"",""trial"",""time""
""fullscreenenter"",""0"",""26355""
","
","
","""event"",""trial"",""time""
""fullscreenenter"",""0"",""26355""
","
","null","run_exp/static/audio/clip_16_quiz_intro.m4a","null","","","","","<div class='center'><p>Good job on the practice game! Now, you will be asked some true or false questions to make sure you really understand the rules of the game.</p><p> Press <b>'1'</b> on the keyboard for true and press <b>'2'</b> for false.</p></div>","","","","","","","","","","","","","","","","","",""
"","audio-keyboard-response","75","499030","0.0-48.0-2.0","""event"",""trial"",""time""
""fullscreenenter"",""0"",""26355""
","
","
","""event"",""trial"",""time""
""fullscreenenter"",""0"",""26355""
","
","14013.100000023842","run_exp/static/audio/clip_17_q1.m4a","49","","","","","","","","","","","","","","","","","","","","","","",""
"","correct","76","501427","0.0-49.0-0.0","""event"",""trial"",""time""
""fullscreenenter"",""0"",""26355""
","
","
","""event"",""trial"",""time""
""fullscreenenter"",""0"",""26355""
","
","null","run_exp/static/audio/clip_18_correct.m4a","null","","","","","<div class='center'><p>That's correct!</p></div>","","","","","","","","","","","","","","","","","",""
"","html-keyboard-response","77","503718","0.0-49.0-1.0","""event"",""trial"",""time""
""fullscreenenter"",""0"",""26355""
","
","
","""event"",""trial"",""time""
""fullscreenenter"",""0"",""26355""
","
","2289.6999999284744","<div class='center'><p>That's correct!</p><p><b>[Press the space bar to continue]</b></p></div>","32","","","","","","","","","","","","","","","","","","","","","","",""
"","audio-keyboard-response","78","512934","0.0-49.0-2.0","""event"",""trial"",""time""
""fullscreenenter"",""0"",""26355""
","
","
","""event"",""trial"",""time""
""fullscreenenter"",""0"",""26355""
","
","9214.100000023842","run_exp/static/audio/clip_20_q2.m4a","50","","","","","","","","","","","","","","","","","","","","","","",""
"","correct","79","515326","0.0-50.0-0.0","""event"",""trial"",""time""
""fullscreenenter"",""0"",""26355""
","
","
","""event"",""trial"",""time""
""fullscreenenter"",""0"",""26355""
","
","null","run_exp/static/audio/clip_18_correct.m4a","null","","","","","<div class='center'><p>That's correct!</p></div>","","","","","","","","","","","","","","","","","",""
"","html-keyboard-response","80","516806","0.0-50.0-1.0","""event"",""trial"",""time""
""fullscreenenter"",""0"",""26355""
","
","
","""event"",""trial"",""time""
""fullscreenenter"",""0"",""26355""
","
","1478.7000000476837","<div class='center'><p>That's correct!</p><p><b>[Press the space bar to continue]</b></p></div>","32","","","","","","","","","","","","","","","","","","","","","","",""
"","audio-keyboard-response","81","523391","0.0-50.0-2.0","""event"",""trial"",""time""
""fullscreenenter"",""0"",""26355""
","
","
","""event"",""trial"",""time""
""fullscreenenter"",""0"",""26355""
","
","6581.199999928474","run_exp/static/audio/clip_22_q3.m4a","50","","","","","","","","","","","","","","","","","","","","","","",""
"","correct","82","525786","0.0-51.0-0.0","""event"",""trial"",""time""
""fullscreenenter"",""0"",""26355""
","
","
","""event"",""trial"",""time""
""fullscreenenter"",""0"",""26355""
","
","null","run_exp/static/audio/clip_18_correct.m4a","null","","","","","<div class='center'><p>That's correct!</p></div>","","","","","","","","","","","","","","","","","",""
"","html-keyboard-response","83","526478","0.0-51.0-1.0","""event"",""trial"",""time""
""fullscreenenter"",""0"",""26355""
","
","
","""event"",""trial"",""time""
""fullscreenenter"",""0"",""26355""
","
","690","<div class='center'><p>That's correct!</p><p><b>[Press the space bar to continue]</b></p></div>","32","","","","","","","","","","","","","","","","","","","","","","",""
"","audio-keyboard-response","84","532494","0.0-51.0-2.0","""event"",""trial"",""time""
""fullscreenenter"",""0"",""26355""
","
","
","""event"",""trial"",""time""
""fullscreenenter"",""0"",""26355""
","
","6013.799999952316","run_exp/static/audio/clip_24_q4.m4a","49","","","","","","","","","","","","","","","","","","","","","","",""
"","correct","85","534967","0.0-52.0-0.0","""event"",""trial"",""time""
""fullscreenenter"",""0"",""26355""
","
","
","""event"",""trial"",""time""
""fullscreenenter"",""0"",""26355""
","
","null","run_exp/static/audio/clip_18_correct.m4a","null","","","","","<div class='center'><p>That's correct!</p></div>","","","","","","","","","","","","","","","","","",""
"","html-keyboard-response","86","536551","0.0-52.0-1.0","""event"",""trial"",""time""
""fullscreenenter"",""0"",""26355""
","
","
","""event"",""trial"",""time""
""fullscreenenter"",""0"",""26355""
","
","1582.6000000238419","<div class='center'><p>That's correct!</p><p><b>[Press the space bar to continue]</b></p></div>","32","","","","","","","","","","","","","","","","","","","","","","",""
"","q_all_corr","87","545067","0.0-53.0-0.0","""event"",""trial"",""time""
""fullscreenenter"",""0"",""26355""
","
","
","""event"",""trial"",""time""
""fullscreenenter"",""0"",""26355""
","
","null","run_exp/static/audio/clip_27_quiz_all_correct.m4a","null","","","","","<div class='center'><p>Good job! You’re now ready to move on to the real game! Remember this game will be difficult but don't get discouraged and try your best!</p></div>","","","","","","","","","","","","","","","","","",""
"","html-keyboard-response","88","547279","0.0-53.0-1.0","""event"",""trial"",""time""
""fullscreenenter"",""0"",""26355""
","
","
","""event"",""trial"",""time""
""fullscreenenter"",""0"",""26355""
","
","2209.899999976158","<div class='center'><p>Good job! You’re now ready to move on to the real game! Remember this game will be difficult but don't get discouraged and try your best!</p><p><b>[Press the space bar to continue]</b></p></div>","32","","","","","","","","","","","","","","","","","","","","","","",""
"","do_welcome","89","551295","0.0-54.0-0.0","""event"",""trial"",""time""
""fullscreenenter"",""0"",""26355""
","
","
","""event"",""trial"",""time""
""fullscreenenter"",""0"",""26355""
","
","null","","","","","","","","null","","","","","","","","","","","","","","","","",""
"","do_trial","90","558175","0.0-55.0-0.0","""event"",""trial"",""time""
""fullscreenenter"",""0"",""26355""
","
","
","""event"",""trial"",""time""
""fullscreenenter"",""0"",""26355""
","
","2293.4000000953674","","","","","","","","49","0,0,0","0","countryside","0","probe-182","0.6","0.3","0.1","0","","","","","","","",""
"","html-keyboard-response","91","559195","0.0-55.0-1.0","""event"",""trial"",""time""
""fullscreenenter"",""0"",""26355""
","
","
","""event"",""trial"",""time""
""fullscreenenter"",""0"",""26355""
","
","null","<p></p>","null","","","","","","","","","","","","","","","","","","","","","","",""
"","do_trial","92","565093","0.0-56.0-0.0","""event"",""trial"",""time""
""fullscreenenter"",""0"",""26355""
","
","
","""event"",""trial"",""time""
""fullscreenenter"",""0"",""26355""
","
","1314","","","","","","","","49","1,1,0","0","countryside","1","probe-181","0.5449772347134034","0.3084588638375261","0.13351428348676278","1","","","","","","","",""
"","html-keyboard-response","93","566107","0.0-56.0-1.0","""event"",""trial"",""time""
""fullscreenenter"",""0"",""26355""
","
","
","""event"",""trial"",""time""
""fullscreenenter"",""0"",""26355""
","
","null","<p></p>","null","","","","","","","","","","","","","","","","","","","","","","",""
"","do_trial","94","572392","0.0-57.0-0.0","""event"",""trial"",""time""
""fullscreenenter"",""0"",""26355""
","
","
","""event"",""trial"",""time""
""fullscreenenter"",""0"",""26355""
","
","1703","","","","","","","","50","0,0,0","0","countryside","2","probe-26","0.5821045265174344","0.39086094167882374","0.05207520391634685","0","","","","","","","",""
"","html-keyboard-response","95","573397","0.0-57.0-1.0","""event"",""trial"",""time""
""fullscreenenter"",""0"",""26355""
","
","
","""event"",""trial"",""time""
""fullscreenenter"",""0"",""26355""
","
","null","<p></p>","null","","","","","","","","","","","","","","","","","","","","","","",""
"","do_trial","96","579715","0.0-58.0-0.0","""event"",""trial"",""time""
""fullscreenenter"",""0"",""26355""
","
","
","""event"",""trial"",""time""
""fullscreenenter"",""0"",""26355""
","
","1765.6000000238419","","","","","","","","49","0,0,0","0","countryside","3","probe-109","0.6503771111546134","0.26727654194378264","0.06109807643527198","0","","","","","","","",""
"","html-keyboard-response","97","580730","0.0-58.0-1.0","""event"",""trial"",""time""
""fullscreenenter"",""0"",""26355""
","
","
","""event"",""trial"",""time""
""fullscreenenter"",""0"",""26355""
","
","null","<p></p>","null","","","","","","","","","","","","","","","","","","","","","","",""
"","do_trial","98","587253","0.0-59.0-0.0","""event"",""trial"",""time""
""fullscreenenter"",""0"",""26355""
","
","
","""event"",""trial"",""time""
""fullscreenenter"",""0"",""26355""
","
","1960.2000000476837","","","","","","","","51","1,0,0","0","countryside","4","probe-29","0.5337066554568817","0.31767851626226884","0.12883781245570936","0","","","","","","","",""
"","html-keyboard-response","99","588262","0.0-59.0-1.0","""event"",""trial"",""time""
""fullscreenenter"",""0"",""26355""
","
","
","""event"",""trial"",""time""
""fullscreenenter"",""0"",""26355""
","
","null","<p></p>","null","","","","","","","","","","","","","","","","","","","","","","",""
"","do_trial","100","594343","0.0-60.0-0.0","""event"",""trial"",""time""
""fullscreenenter"",""0"",""26355""
","
","
","""event"",""trial"",""time""
""fullscreenenter"",""0"",""26355""
","
","null","","","","","","","","null","1,0,0","0","countryside","5","probe-95","0.5663832464663726","0.37566702729632845","0.0781072796833356","","","","","","","","",""
"","html-keyboard-response","101","595357","0.0-60.0-1.0","""event"",""trial"",""time""
""fullscreenenter"",""0"",""26355""
","
","
","""event"",""trial"",""time""
""fullscreenenter"",""0"",""26355""
","
","null","<p></p>","null","","","","","","","","","","","","","","","","","","","","","","",""
"","do_trial","102","601001","0.0-61.0-0.0","""event"",""trial"",""time""
""fullscreenenter"",""0"",""26355""
","
","
","""event"",""trial"",""time""
""fullscreenenter"",""0"",""26355""
","
","1075.5999999046326","","","","","","","","50","1,0,0","0","countryside","6","probe-124","0.4785092470148301","0.387334468198254","0.24963969748242534","0","","","","","","","",""
"","html-keyboard-response","103","602013","0.0-61.0-1.0","""event"",""trial"",""time""
""fullscreenenter"",""0"",""26355""
","
","
","""event"",""trial"",""time""
""fullscreenenter"",""0"",""26355""
","
","null","<p></p>","null","","","","","","","","","","","","","","","","","","","","","","",""
"","do_trial","104","608254","0.0-62.0-0.0","""event"",""trial"",""time""
""fullscreenenter"",""0"",""26355""
","
","
","""event"",""trial"",""time""
""fullscreenenter"",""0"",""26355""
","
","1685.5999999046326","","","","","","","","51","1,0,0","0","countryside","7","probe-108","0.6912507228649797","0.44719165346527645","0.2243796181756637","0","","","","","","","",""
"","html-keyboard-response","105","609256","0.0-62.0-1.0","""event"",""trial"",""time""
""fullscreenenter"",""0"",""26355""
","
","
","""event"",""trial"",""time""
""fullscreenenter"",""0"",""26355""
","
","null","<p></p>","null","","","","","","","","","","","","","","","","","","","","","","",""
"","do_trial","106","616402","0.0-63.0-0.0","""event"",""trial"",""time""
""fullscreenenter"",""0"",""26355""
","
","
","""event"",""trial"",""time""
""fullscreenenter"",""0"",""26355""
","
","2587","","","","","","","","51","0,1,0","0","countryside","8","probe-167","0.618791877368361","0.4103455573049145","0.09576082757743447","0","","","","","","","",""
"","html-keyboard-response","107","617413","0.0-63.0-1.0","""event"",""trial"",""time""
""fullscreenenter"",""0"",""26355""
","
","
","""event"",""trial"",""time""
""fullscreenenter"",""0"",""26355""
","
","null","<p></p>","null","","","","","","","","","","","","","","","","","","","","","","",""
"","do_trial","108","623488","0.0-64.0-0.0","""event"",""trial"",""time""
""fullscreenenter"",""0"",""26355""
","
","
","""event"",""trial"",""time""
""fullscreenenter"",""0"",""26355""
","
","null","","","","","","","","null","0,1,0","0","countryside","9","probe-190","0.6833033097260143","0.4400573127169033","0.052932711887716206","","","","","","","","",""
"","html-keyboard-response","109","624506","0.0-64.0-1.0","""event"",""trial"",""time""
""fullscreenenter"",""0"",""26355""
","
","
","""event"",""trial"",""time""
""fullscreenenter"",""0"",""26355""
","
","null","<p></p>","null","","","","","","","","","","","","","","","","","","","","","","",""
"","do_trial","110","630648","0.0-65.0-0.0","""event"",""trial"",""time""
""fullscreenenter"",""0"",""26355""
","
","
","""event"",""trial"",""time""
""fullscreenenter"",""0"",""26355""
","
","1563.5","","","","","","","","51","1,1,0","0","countryside","10","probe-228","0.6919295166578268","0.5229577581263736","0.21742187347410877","0","","","","","","","",""
"","html-keyboard-response","111","631665","0.0-65.0-1.0","""event"",""trial"",""time""
""fullscreenenter"",""0"",""26355""
","
","
","""event"",""trial"",""time""
""fullscreenenter"",""0"",""26355""
","
","null","<p></p>","null","","","","","","","","","","","","","","","","","","","","","","",""
"","do_trial","112","637089","0.0-66.0-0.0","""event"",""trial"",""time""
""fullscreenenter"",""0"",""26355""
","
","
","""event"",""trial"",""time""
""fullscreenenter"",""0"",""26355""
","
","863.2999999523163","","","","","","","","50","0,1,0","0","countryside","11","probe-192","0.7075517845492327","0.37034282816871267","0.10870894164927629","1","","","","","","","",""
"","html-keyboard-response","113","638096","0.0-66.0-1.0","""event"",""trial"",""time""
""fullscreenenter"",""0"",""26355""
","
","
","""event"",""trial"",""time""
""fullscreenenter"",""0"",""26355""
","
","null","<p></p>","null","","","","","","","","","","","","","","","","","","","","","","",""
"","do_trial","114","643538","0.0-67.0-0.0","""event"",""trial"",""time""
""fullscreenenter"",""0"",""26355""
","
","
","""event"",""trial"",""time""
""fullscreenenter"",""0"",""26355""
","
","863.1999999284744","","","","","","","","50","1,0,0","0","countryside","12","probe-55","0.481756568592555","0.35161788902361046","0.26511221337310503","0","","","","","","","",""
"","html-keyboard-response","115","644555","0.0-67.0-1.0","""event"",""trial"",""time""
""fullscreenenter"",""0"",""26355""
","
","
","""event"",""trial"",""time""
""fullscreenenter"",""0"",""26355""
","
","null","<p></p>","null","","","","","","","","","","","","","","","","","","","","","","",""
"","do_trial","116","649272","0.0-68.0-0.0","""event"",""trial"",""time""
""fullscreenenter"",""0"",""26355""
","
","
","""event"",""trial"",""time""
""fullscreenenter"",""0"",""26355""
","
","141.69999992847443","","","","","","","","50","1,0,0","0","countryside","13","probe-12","0.38414015492521475","0.2894439923807963","0.2053265703856849","0","","","","","","","",""
"","html-keyboard-response","117","650286","0.0-68.0-1.0","""event"",""trial"",""time""
""fullscreenenter"",""0"",""26355""
","
","
","""event"",""trial"",""time""
""fullscreenenter"",""0"",""26355""
","
","null","<p></p>","null","","","","","","","","","","","","","","","","","","","","","","",""
"","do_trial","118","655780","0.0-69.0-0.0","""event"",""trial"",""time""
""fullscreenenter"",""0"",""26355""
","
","
","""event"",""trial"",""time""
""fullscreenenter"",""0"",""26355""
","
","923.2000000476837","","","","","","","","49","0,0,0","0","countryside","14","probe-102","0.46566409998408037","0.3369337022842543","0.2456546968333229","0","","","","","","","",""
"","html-keyboard-response","119","656797","0.0-69.0-1.0","""event"",""trial"",""time""
""fullscreenenter"",""0"",""26355""
","
","
","""event"",""trial"",""time""
""fullscreenenter"",""0"",""26355""
","
","null","<p></p>","null","","","","","","","","","","","","","","","","","","","","","","",""
"","do_trial","120","662993","0.0-70.0-0.0","""event"",""trial"",""time""
""fullscreenenter"",""0"",""26355""
","
","
","""event"",""trial"",""time""
""fullscreenenter"",""0"",""26355""
","
","1628.5","","","","","","","","49","1,0,0","0","countryside","15","probe-161","0.6086043654373449","0.2602874763200299","0.26070698456957275","1","","","","","","","",""
"","html-keyboard-response","121","663999","0.0-70.0-1.0","""event"",""trial"",""time""
""fullscreenenter"",""0"",""26355""
","
","
","""event"",""trial"",""time""
""fullscreenenter"",""0"",""26355""
","
","null","<p></p>","null","","","","","","","","","","","","","","","","","","","","","","",""
"","do_trial","122","669356","0.0-71.0-0.0","""event"",""trial"",""time""
""fullscreenenter"",""0"",""26355""
","
","
","""event"",""trial"",""time""
""fullscreenenter"",""0"",""26355""
","
","782.2999999523163","","","","","","","","49","1,0,0","0","countryside","16","probe-217","0.6287134333723232","0.3501391750247362","0.14316398436623495","1","","","","","","","",""
"","html-keyboard-response","123","670372","0.0-71.0-1.0","""event"",""trial"",""time""
""fullscreenenter"",""0"",""26355""
","
","
","""event"",""trial"",""time""
""fullscreenenter"",""0"",""26355""
","
","null","<p></p>","null","","","","","","","","","","","","","","","","","","","","","","",""
"","do_trial","124","675642","0.0-72.0-0.0","""event"",""trial"",""time""
""fullscreenenter"",""0"",""26355""
","
","
","""event"",""trial"",""time""
""fullscreenenter"",""0"",""26355""
","
","694","","","","","","","","49","1,0,0","0","countryside","17","probe-198","0.7083772266228572","0.19448549465376125","0.06469121553145882","1","","","","","","","",""
"","html-keyboard-response","125","676649","0.0-72.0-1.0","""event"",""trial"",""time""
""fullscreenenter"",""0"",""26355""
","
","
","""event"",""trial"",""time""
""fullscreenenter"",""0"",""26355""
","
","null","<p></p>","null","","","","","","","","","","","","","","","","","","","","","","",""
"","do_trial","126","682134","0.0-73.0-0.0","""event"",""trial"",""time""
""fullscreenenter"",""0"",""26355""
","
","
","""event"",""trial"",""time""
""fullscreenenter"",""0"",""26355""
","
","927.0999999046326","","","","","","","","49","1,0,0","0","countryside","18","probe-142","0.7008382483664459","0.23676880425053273","0.05655041736431006","1","","","","","","","",""
"","html-keyboard-response","127","683147","0.0-73.0-1.0","""event"",""trial"",""time""
""fullscreenenter"",""0"",""26355""
","
","
","""event"",""trial"",""time""
""fullscreenenter"",""0"",""26355""
","
","null","<p></p>","null","","","","","","","","","","","","","","","","","","","","","","",""
"","do_trial","128","688387","0.0-74.0-0.0","""event"",""trial"",""time""
""fullscreenenter"",""0"",""26355""
","
","
","""event"",""trial"",""time""
""fullscreenenter"",""0"",""26355""
","
","667.2999999523163","","","","","","","","49","1,0,1","0","countryside","19","probe-115","0.6280442226851064","0.23950763205283918","0.2233785939310102","1","","","","","","","",""
"","html-keyboard-response","129","689404","0.0-74.0-1.0","""event"",""trial"",""time""
""fullscreenenter"",""0"",""26355""
","
","
","""event"",""trial"",""time""
""fullscreenenter"",""0"",""26355""
","
","null","<p></p>","null","","","","","","","","","","","","","","","","","","","","","","",""
"","do_trial","130","694730","0.0-75.0-0.0","""event"",""trial"",""time""
""fullscreenenter"",""0"",""26355""
","
","
","""event"",""trial"",""time""
""fullscreenenter"",""0"",""26355""
","
","767.8999999761581","","","","","","","","49","0,0,0","0","countryside","20","probe-85","0.5840338739291397","0.2130344925000057","0.1060670219138071","0","","","","","","","",""
"","html-keyboard-response","131","695740","0.0-75.0-1.0","""event"",""trial"",""time""
""fullscreenenter"",""0"",""26355""
","
","
","""event"",""trial"",""time""
""fullscreenenter"",""0"",""26355""
","
","null","<p></p>","null","","","","","","","","","","","","","","","","","","","","","","",""
"","do_trial","132","700995","0.0-76.0-0.0","""event"",""trial"",""time""
""fullscreenenter"",""0"",""26355""
","
","
","""event"",""trial"",""time""
""fullscreenenter"",""0"",""26355""
","
","687.2999999523163","","","","","","","","49","1,0,0","0","countryside","21","probe-183","0.5604085074767317","0.22302837331310385","0.057666563758579745","1","","","","","","","",""
"","html-keyboard-response","133","701998","0.0-76.0-1.0","""event"",""trial"",""time""
""fullscreenenter"",""0"",""26355""
","
","
","""event"",""trial"",""time""
""fullscreenenter"",""0"",""26355""
","
","null","<p></p>","null","","","","","","","","","","","","","","","","","","","","","","",""
"","do_trial","134","707420","0.0-77.0-0.0","""event"",""trial"",""time""
""fullscreenenter"",""0"",""26355""
","
","
","""event"",""trial"",""time""
""fullscreenenter"",""0"",""26355""
","
","847.5","","","","","","","","49","1,0,1","0","countryside","22","probe-164","0.6025016305096701","0.22502515839791506","0.1959803209071515","1","","","","","","","",""
"","html-keyboard-response","135","708433","0.0-77.0-1.0","""event"",""trial"",""time""
""fullscreenenter"",""0"",""26355""
","
","
","""event"",""trial"",""time""
""fullscreenenter"",""0"",""26355""
","
","null","<p></p>","null","","","","","","","","","","","","","","","","","","","","","","",""
"","do_trial","136","714507","0.0-78.0-0.0","""event"",""trial"",""time""
""fullscreenenter"",""0"",""26355""
","
","
","""event"",""trial"",""time""
""fullscreenenter"",""0"",""26355""
","
","null","","","","","","","","null","0,0,1","0","countryside","23","probe-187","0.585227331517822","0.14449583995487167","0.1684551817419731","","","","","","","","",""
"","html-keyboard-response","137","715521","0.0-78.0-1.0","""event"",""trial"",""time""
""fullscreenenter"",""0"",""26355""
","
","
","""event"",""trial"",""time""
""fullscreenenter"",""0"",""26355""
","
","null","<p></p>","null","","","","","","","","","","","","","","","","","","","","","","",""
"","do_trial","138","722031","0.0-79.0-0.0","""event"",""trial"",""time""
""fullscreenenter"",""0"",""26355""
","
","
","""event"",""trial"",""time""
""fullscreenenter"",""0"",""26355""
","
","1930.8999999761581","","","","","","","","49","1,0,0","0","countryside","24","probe-75","0.6506197790580257","0.13984874665439292","0.06233891575636131","1","","","","","","","",""
"","html-keyboard-response","139","723048","0.0-79.0-1.0","""event"",""trial"",""time""
""fullscreenenter"",""0"",""26355""
","
","
","""event"",""trial"",""time""
""fullscreenenter"",""0"",""26355""
","
","null","<p></p>","null","","","","","","","","","","","","","","","","","","","","","","",""
"","do_trial","140","728271","0.0-80.0-0.0","""event"",""trial"",""time""
""fullscreenenter"",""0"",""26355""
","
","
","""event"",""trial"",""time""
""fullscreenenter"",""0"",""26355""
","
","645.8999999761581","","","","","","","","49","1,0,0","0","countryside","25","probe-207","0.6660667892352637","0.18868429797579858","0.14418630506616212","1","","","","","","","",""
"","html-keyboard-response","141","729287","0.0-80.0-1.0","""event"",""trial"",""time""
""fullscreenenter"",""0"",""26355""
","
","
","""event"",""trial"",""time""
""fullscreenenter"",""0"",""26355""
","
","null","<p></p>","null","","","","","","","","","","","","","","","","","","","","","","",""
"","do_trial","142","734759","0.0-81.0-0.0","""event"",""trial"",""time""
""fullscreenenter"",""0"",""26355""
","
","
","""event"",""trial"",""time""
""fullscreenenter"",""0"",""26355""
","
","895.7000000476837","","","","","","","","49","1,0,0","0","countryside","26","probe-131","0.654677349849881","0.28789790612100014","0.08110991618943877","1","","","","","","","",""
"","html-keyboard-response","143","735772","0.0-81.0-1.0","""event"",""trial"",""time""
""fullscreenenter"",""0"",""26355""
","
","
","""event"",""trial"",""time""
""fullscreenenter"",""0"",""26355""
","
","null","<p></p>","null","","","","","","","","","","","","","","","","","","","","","","",""
"","do_trial","144","741189","0.0-82.0-0.0","""event"",""trial"",""time""
""fullscreenenter"",""0"",""26355""
","
","
","""event"",""trial"",""time""
""fullscreenenter"",""0"",""26355""
","
","855.1000000238419","","","","","","","","49","1,1,0","0","countryside","27","probe-197","0.5990606441659517","0.183066260822068","0.1571078589421802","1","","","","","","","",""
"","html-keyboard-response","145","742197","0.0-82.0-1.0","""event"",""trial"",""time""
""fullscreenenter"",""0"",""26355""
","
","
","""event"",""trial"",""time""
""fullscreenenter"",""0"",""26355""
","
","null","<p></p>","null","","","","","","","","","","","","","","","","","","","","","","",""
"","do_trial","146","747672","0.0-83.0-0.0","""event"",""trial"",""time""
""fullscreenenter"",""0"",""26355""
","
","
","""event"",""trial"",""time""
""fullscreenenter"",""0"",""26355""
","
","894.2000000476837","","","","","","","","49","1,0,0","0","countryside","28","probe-114","0.6082575431848594","0.2366946509646424","0.15644723035748673","1","","","","","","","",""
"","html-keyboard-response","147","748680","0.0-83.0-1.0","""event"",""trial"",""time""
""fullscreenenter"",""0"",""26355""
","
","
","""event"",""trial"",""time""
""fullscreenenter"",""0"",""26355""
","
","null","<p></p>","null","","","","","","","","","","","","","","","","","","","","","","",""
"","do_trial","148","754758","0.0-84.0-0.0","""event"",""trial"",""time""
""fullscreenenter"",""0"",""26355""
","
","
","""event"",""trial"",""time""
""fullscreenenter"",""0"",""26355""
","
","null","","","","","","","","null","1,0,0","0","countryside","29","probe-159","0.5565490153949602","0.24920450946982617","0.1266531971524747","","","","","","","","",""
"","html-keyboard-response","149","755772","0.0-84.0-1.0","""event"",""trial"",""time""
""fullscreenenter"",""0"",""26355""
","
","
","""event"",""trial"",""time""
""fullscreenenter"",""0"",""26355""
","
","null","<p></p>","null","","","","","","","","","","","","","","","","","","","","","","",""
"","do_bye","150","757284","0.0-85.0-0.0","""event"",""trial"",""time""
""fullscreenenter"",""0"",""26355""
","
","
","""event"",""trial"",""time""
""fullscreenenter"",""0"",""26355""
","
","null","","","","","","","","null","","","","","","","","","","","","","","","","",""
"","break","151","864169","0.0-85.0-1.0","""event"",""trial"",""time""
""fullscreenenter"",""0"",""26355""
","
","
","""event"",""trial"",""time""
""fullscreenenter"",""0"",""26355""
","
","106882.79999995232","<div class='center'><p>Time to take a quick break! You have 2 minutes to rest, but you can move on sooner if you'd like.</p><p> Press the <b>space bar</b> to continue.</p></div>","32","","","","","","","","","","","","","","","","","","","","","","",""
"","do_travel","152","873175","0.0-86.0-0.0","""event"",""trial"",""time""
""fullscreenenter"",""0"",""26355""
","
","
","""event"",""trial"",""time""
""fullscreenenter"",""0"",""26355""
","
","null","","","","","","","","null","","","","","","","","","","","","","","","","",""
"","do_welcome","153","877195","0.0-86.0-1.0","""event"",""trial"",""time""
""fullscreenenter"",""0"",""26355""
","
","
","""event"",""trial"",""time""
""fullscreenenter"",""0"",""26355""
","
","null","","","","","","","","null","","","","","","","","","","","","","","","","",""
"","do_trial","154","883355","0.0-87.0-0.0","""event"",""trial"",""time""
""fullscreenenter"",""0"",""26355""
","
","
","""event"",""trial"",""time""
""fullscreenenter"",""0"",""26355""
","
","1582.5","","","","","","","","49","1,0,0","1","mountain","30","probe-128","1","0.24177664341631858","0.13351829593420123","1","","","","","","","",""
"","html-keyboard-response","155","884374","0.0-87.0-1.0","""event"",""trial"",""time""
""fullscreenenter"",""0"",""26355""
","
","
","""event"",""trial"",""time""
""fullscreenenter"",""0"",""26355""
","
","null","<p></p>","null","","","","","","","","","","","","","","","","","","","","","","",""
"","do_trial","156","889713","0.0-88.0-0.0","""event"",""trial"",""time""
""fullscreenenter"",""0"",""26355""
","
","
","""event"",""trial"",""time""
""fullscreenenter"",""0"",""26355""
","
","764.6000000238419","","","","","","","","49","1,0,0","1","mountain","31","probe-30","1","0.10889262151972191","0.07148677852743368","1","","","","","","","",""
"","html-keyboard-response","157","890724","0.0-88.0-1.0","""event"",""trial"",""time""
""fullscreenenter"",""0"",""26355""
","
","
","""event"",""trial"",""time""
""fullscreenenter"",""0"",""26355""
","
","null","<p></p>","null","","","","","","","","","","","","","","","","","","","","","","",""
"","do_trial","158","896113","0.0-89.0-0.0","""event"",""trial"",""time""
""fullscreenenter"",""0"",""26355""
","
","
","""event"",""trial"",""time""
""fullscreenenter"",""0"",""26355""
","
","815.8999999761581","","","","","","","","49","1,0,0","1","mountain","32","probe-212","1","0.22489074461219108","0.07040514439272182","1","","","","","","","",""
"","html-keyboard-response","159","897116","0.0-89.0-1.0","""event"",""trial"",""time""
""fullscreenenter"",""0"",""26355""
","
","
","""event"",""trial"",""time""
""fullscreenenter"",""0"",""26355""
","
","null","<p></p>","null","","","","","","","","","","","","","","","","","","","","","","",""
"","do_trial","160","902481","0.0-90.0-0.0","""event"",""trial"",""time""
""fullscreenenter"",""0"",""26355""
","
","
","""event"",""trial"",""time""
""fullscreenenter"",""0"",""26355""
","
","807.5","","","","","","","","49","1,0,0","1","mountain","33","probe-47","0.7843434559348412","0.20585611903856635","0.08750131556064437","1","","","","","","","",""
"","html-keyboard-response","161","903497","0.0-90.0-1.0","""event"",""trial"",""time""
""fullscreenenter"",""0"",""26355""
","
","
","""event"",""trial"",""time""
""fullscreenenter"",""0"",""26355""
","
","null","<p></p>","null","","","","","","","","","","","","","","","","","","","","","","",""
"","do_trial","162","908669","0.0-91.0-0.0","""event"",""trial"",""time""
""fullscreenenter"",""0"",""26355""
","
","
","""event"",""trial"",""time""
""fullscreenenter"",""0"",""26355""
","
","604.5","","","","","","","","49","1,0,0","1","mountain","34","probe-36","0.7314467704087282","0.21506049870617816","0.09908769819667429","1","","","","","","","",""
"","html-keyboard-response","163","909674","0.0-91.0-1.0","""event"",""trial"",""time""
""fullscreenenter"",""0"",""26355""
","
","
","""event"",""trial"",""time""
""fullscreenenter"",""0"",""26355""
","
","null","<p></p>","null","","","","","","","","","","","","","","","","","","","","","","",""
"","do_trial","164","914762","0.0-92.0-0.0","""event"",""trial"",""time""
""fullscreenenter"",""0"",""26355""
","
","
","""event"",""trial"",""time""
""fullscreenenter"",""0"",""26355""
","
","520.7999999523163","","","","","","","","49","1,1,0","1","mountain","35","probe-150","0.6704091281762143","0.4040464882396098","0.06387385867627157","1","","","","","","","",""
"","html-keyboard-response","165","915771","0.0-92.0-1.0","""event"",""trial"",""time""
""fullscreenenter"",""0"",""26355""
","
","
","""event"",""trial"",""time""
""fullscreenenter"",""0"",""26355""
","
","null","<p></p>","null","","","","","","","","","","","","","","","","","","","","","","",""
"","do_trial","166","921090","0.0-93.0-0.0","""event"",""trial"",""time""
""fullscreenenter"",""0"",""26355""
","
","
","""event"",""trial"",""time""
""fullscreenenter"",""0"",""26355""
","
","749.2999999523163","","","","","","","","49","1,1,0","1","mountain","36","probe-139","0.7602636898362292","0.3788270372889679","0.14579493613451797","1","","","","","","","",""
"","html-keyboard-response","167","922097","0.0-93.0-1.0","""event"",""trial"",""time""
""fullscreenenter"",""0"",""26355""
","
","
","""event"",""trial"",""time""
""fullscreenenter"",""0"",""26355""
","
","null","<p></p>","null","","","","","","","","","","","","","","","","","","","","","","",""
"","do_trial","168","926703","0.0-94.0-0.0","""event"",""trial"",""time""
""fullscreenenter"",""0"",""26355""
","
","
","""event"",""trial"",""time""
""fullscreenenter"",""0"",""26355""
","
","35.700000047683716","","","","","","","","49","0,1,1","1","mountain","37","probe-62","0.6490090340770158","0.44317553132770315","0.14746251570841007","0","","","","","","","",""
"","html-keyboard-response","169","927713","0.0-94.0-1.0","""event"",""trial"",""time""
""fullscreenenter"",""0"",""26355""
","
","
","""event"",""trial"",""time""
""fullscreenenter"",""0"",""26355""
","
","null","<p></p>","null","","","","","","","","","","","","","","","","","","","","","","",""
"","do_trial","170","932920","0.0-95.0-0.0","""event"",""trial"",""time""
""fullscreenenter"",""0"",""26355""
","
","
","""event"",""trial"",""time""
""fullscreenenter"",""0"",""26355""
","
","635.2999999523163","","","","","","","","49","1,0,0","1","mountain","38","probe-11","0.48563021856852673","0.3893023042374514","0.14073274080025722","1","","","","","","","",""
"","html-keyboard-response","171","933931","0.0-95.0-1.0","""event"",""trial"",""time""
""fullscreenenter"",""0"",""26355""
","
","
","""event"",""trial"",""time""
""fullscreenenter"",""0"",""26355""
","
","null","<p></p>","null","","","","","","","","","","","","","","","","","","","","","","",""
"","do_trial","172","939270","0.0-96.0-0.0","""event"",""trial"",""time""
""fullscreenenter"",""0"",""26355""
","
","
","""event"",""trial"",""time""
""fullscreenenter"",""0"",""26355""
","
","750.1999999284744","","","","","","","","49","0,1,0","1","mountain","39","probe-209","0.44930968348567535","0.278235136575592","0.13299543686791684","0","","","","","","","",""
"","html-keyboard-response","173","940279","0.0-96.0-1.0","""event"",""trial"",""time""
""fullscreenenter"",""0"",""26355""
","
","
","""event"",""trial"",""time""
""fullscreenenter"",""0"",""26355""
","
","null","<p></p>","null","","","","","","","","","","","","","","","","","","","","","","",""
"","do_trial","174","945513","0.0-97.0-0.0","""event"",""trial"",""time""
""fullscreenenter"",""0"",""26355""
","
","
","""event"",""trial"",""time""
""fullscreenenter"",""0"",""26355""
","
","672.8999999761581","","","","","","","","49","1,0,0","1","mountain","40","probe-201","0.4844855024148685","0.3009433902589355","0.20771544958305016","1","","","","","","","",""
"","html-keyboard-response","175","946530","0.0-97.0-1.0","""event"",""trial"",""time""
""fullscreenenter"",""0"",""26355""
","
","
","""event"",""trial"",""time""
""fullscreenenter"",""0"",""26355""
","
","null","<p></p>","null","","","","","","","","","","","","","","","","","","","","","","",""
"","do_trial","176","951571","0.0-98.0-0.0","""event"",""trial"",""time""
""fullscreenenter"",""0"",""26355""
","
","
","""event"",""trial"",""time""
""fullscreenenter"",""0"",""26355""
","
","463.2999999523163","","","","","","","","49","1,0,0","1","mountain","41","probe-194","0.33619776923051176","0.27460516885728775","0.23625781038454585","1","","","","","","","",""
"","html-keyboard-response","177","952579","0.0-98.0-1.0","""event"",""trial"",""time""
""fullscreenenter"",""0"",""26355""
","
","
","""event"",""trial"",""time""
""fullscreenenter"",""0"",""26355""
","
","null","<p></p>","null","","","","","","","","","","","","","","","","","","","","","","",""
"","do_trial","178","957770","0.0-99.0-0.0","""event"",""trial"",""time""
""fullscreenenter"",""0"",""26355""
","
","
","""event"",""trial"",""time""
""fullscreenenter"",""0"",""26355""
","
","611.4000000953674","","","","","","","","49","1,0,1","1","mountain","42","probe-65","0.2854786945942274","0.2104321744697855","0.32696297059067","1","","","","","","","",""
"","html-keyboard-response","179","958779","0.0-99.0-1.0","""event"",""trial"",""time""
""fullscreenenter"",""0"",""26355""
","
","
","""event"",""trial"",""time""
""fullscreenenter"",""0"",""26355""
","
","null","<p></p>","null","","","","","","","","","","","","","","","","","","","","","","",""
"","do_trial","180","964069","0.0-100.0-0.0","""event"",""trial"",""time""
""fullscreenenter"",""0"",""26355""
","
","
","""event"",""trial"",""time""
""fullscreenenter"",""0"",""26355""
","
","715.1000000238419","","","","","","","","49","0,0,0","1","mountain","43","probe-20","0.2716097349190049","0.2835754437704866","0.3161282457149798","0","","","","","","","",""
"","html-keyboard-response","181","965088","0.0-100.0-1.0","""event"",""trial"",""time""
""fullscreenenter"",""0"",""26355""
","
","
","""event"",""trial"",""time""
""fullscreenenter"",""0"",""26355""
","
","null","<p></p>","null","","","","","","","","","","","","","","","","","","","","","","",""
"","do_trial","182","971956","0.0-101.0-0.0","""event"",""trial"",""time""
""fullscreenenter"",""0"",""26355""
","
","
","""event"",""trial"",""time""
""fullscreenenter"",""0"",""26355""
","
","2292.600000023842","","","","","","","","49","1,0,0","1","mountain","44","probe-169","0.3691567443204081","0.36687637578628945","0.3009986056212629","1","","","","","","","",""
"","html-keyboard-response","183","972964","0.0-101.0-1.0","""event"",""trial"",""time""
""fullscreenenter"",""0"",""26355""
","
","
","""event"",""trial"",""time""
""fullscreenenter"",""0"",""26355""
","
","null","<p></p>","null","","","","","","","","","","","","","","","","","","","","","","",""
"","do_trial","184","978155","0.0-102.0-0.0","""event"",""trial"",""time""
""fullscreenenter"",""0"",""26355""
","
","
","""event"",""trial"",""time""
""fullscreenenter"",""0"",""26355""
","
","623.6000000238419","","","","","","","","49","1,1,1","1","mountain","45","probe-141","0.16977862238372235","0.5710827545150461","0.43139579682586054","1","","","","","","","",""
"","html-keyboard-response","185","979165","0.0-102.0-1.0","""event"",""trial"",""time""
""fullscreenenter"",""0"",""26355""
","
","
","""event"",""trial"",""time""
""fullscreenenter"",""0"",""26355""
","
","null","<p></p>","null","","","","","","","","","","","","","","","","","","","","","","",""
"","do_trial","186","984337","0.0-103.0-0.0","""event"",""trial"",""time""
""fullscreenenter"",""0"",""26355""
","
","
","""event"",""trial"",""time""
""fullscreenenter"",""0"",""26355""
","
","606.5","","","","","","","","49","0,0,0","1","mountain","46","probe-126","0.07922663297519224","0.6043862118239347","0.3910384467341168","0","","","","","","","",""
"","html-keyboard-response","187","985346","0.0-103.0-1.0","""event"",""trial"",""time""
""fullscreenenter"",""0"",""26355""
","
","
","""event"",""trial"",""time""
""fullscreenenter"",""0"",""26355""
","
","null","<p></p>","null","","","","","","","","","","","","","","","","","","","","","","",""
"","do_trial","188","990505","0.0-104.0-0.0","""event"",""trial"",""time""
""fullscreenenter"",""0"",""26355""
","
","
","""event"",""trial"",""time""
""fullscreenenter"",""0"",""26355""
","
","597.3999999761581","","","","","","","","49","0,1,0","1","mountain","47","probe-103","0.06239356982579257","0.7595435907351875","0.21690316271746987","0","","","","","","","",""
"","html-keyboard-response","189","991510","0.0-104.0-1.0","""event"",""trial"",""time""
""fullscreenenter"",""0"",""26355""
","
","
","""event"",""trial"",""time""
""fullscreenenter"",""0"",""26355""
","
","null","<p></p>","null","","","","","","","","","","","","","","","","","","","","","","",""
"","do_trial","190","996616","0.0-105.0-0.0","""event"",""trial"",""time""
""fullscreenenter"",""0"",""26355""
","
","
","""event"",""trial"",""time""
""fullscreenenter"",""0"",""26355""
","
","536.8999999761581","","","","","","","","50","0,1,1","1","mountain","48","probe-08","0.11399361079663844","0.8818562103219942","0.3327203932378181","1","","","","","","","",""
"","html-keyboard-response","191","997617","0.0-105.0-1.0","""event"",""trial"",""time""
""fullscreenenter"",""0"",""26355""
","
","
","""event"",""trial"",""time""
""fullscreenenter"",""0"",""26355""
","
","null","<p></p>","null","","","","","","","","","","","","","","","","","","","","","","",""
"","do_trial","192","1002690","0.0-106.0-0.0","""event"",""trial"",""time""
""fullscreenenter"",""0"",""26355""
","
","
","""event"",""trial"",""time""
""fullscreenenter"",""0"",""26355""
","
","479.10000002384186","","","","","","","","50","0,1,0","1","mountain","49","probe-41","0.12244135834958182","0.7150329269937327","0.3708259716276411","1","","","","","","","",""
"","html-keyboard-response","193","1003705","0.0-106.0-1.0","""event"",""trial"",""time""
""fullscreenenter"",""0"",""26355""
","
","
","""event"",""trial"",""time""
""fullscreenenter"",""0"",""26355""
","
","null","<p></p>","null","","","","","","","","","","","","","","","","","","","","","","",""
"","do_trial","194","1009472","0.0-107.0-0.0","""event"",""trial"",""time""
""fullscreenenter"",""0"",""26355""
","
","
","""event"",""trial"",""time""
""fullscreenenter"",""0"",""26355""
","
","1198.7000000476837","","","","","","","","50","1,0,0","1","mountain","50","probe-105","0.15141697349265318","0.7062589212091824","0.27429468790043493","0","","","","","","","",""
"","html-keyboard-response","195","1010478","0.0-107.0-1.0","""event"",""trial"",""time""
""fullscreenenter"",""0"",""26355""
","
","
","""event"",""trial"",""time""
""fullscreenenter"",""0"",""26355""
","
","null","<p></p>","null","","","","","","","","","","","","","","","","","","","","","","",""
"","do_trial","196","1015798","0.0-108.0-0.0","""event"",""trial"",""time""
""fullscreenenter"",""0"",""26355""
","
","
","""event"",""trial"",""time""
""fullscreenenter"",""0"",""26355""
","
","759.5","","","","","","","","50","0,1,0","1","mountain","51","probe-180","0.18701046742324598","0.641954473997005","0.4273132580561035","1","","","","","","","",""
"","html-keyboard-response","197","1016815","0.0-108.0-1.0","""event"",""trial"",""time""
""fullscreenenter"",""0"",""26355""
","
","
","""event"",""trial"",""time""
""fullscreenenter"",""0"",""26355""
","
","null","<p></p>","null","","","","","","","","","","","","","","","","","","","","","","",""
"","do_trial","198","1022180","0.0-109.0-0.0","""event"",""trial"",""time""
""fullscreenenter"",""0"",""26355""
","
","
","""event"",""trial"",""time""
""fullscreenenter"",""0"",""26355""
","
","795.1000000238419","","","","","","","","50","0,1,1","1","mountain","52","probe-81","0.05212456922454298","0.6899062803412782","0.46270899878561256","1","","","","","","","",""
"","html-keyboard-response","199","1023197","0.0-109.0-1.0","""event"",""trial"",""time""
""fullscreenenter"",""0"",""26355""
","
","
","""event"",""trial"",""time""
""fullscreenenter"",""0"",""26355""
","
","null","<p></p>","null","","","","","","","","","","","","","","","","","","","","","","",""
"","do_trial","200","1028488","0.0-110.0-0.0","""event"",""trial"",""time""
""fullscreenenter"",""0"",""26355""
","
","
","""event"",""trial"",""time""
""fullscreenenter"",""0"",""26355""
","
","708.1999999284744","","","","","","","","50","0,1,1","1","mountain","53","probe-83","0.12265408748221841","0.6478550424882015","0.33505364362637063","1","","","","","","","",""
"","html-keyboard-response","201","1029498","0.0-110.0-1.0","""event"",""trial"",""time""
""fullscreenenter"",""0"",""26355""
","
","
","""event"",""trial"",""time""
""fullscreenenter"",""0"",""26355""
","
","null","<p></p>","null","","","","","","","","","","","","","","","","","","","","","","",""
"","do_trial","202","1034711","0.0-111.0-0.0","""event"",""trial"",""time""
""fullscreenenter"",""0"",""26355""
","
","
","""event"",""trial"",""time""
""fullscreenenter"",""0"",""26355""
","
","626.2999999523163","","","","","","","","50","0,0,1","1","mountain","54","probe-152","0.1197466994564877","0.6866507384559369","0.38343697277764727","0","","","","","","","",""
"","html-keyboard-response","203","1035726","0.0-111.0-1.0","""event"",""trial"",""time""
""fullscreenenter"",""0"",""26355""
","
","
","""event"",""trial"",""time""
""fullscreenenter"",""0"",""26355""
","
","null","<p></p>","null","","","","","","","","","","","","","","","","","","","","","","",""
"","do_trial","204","1040818","0.0-112.0-0.0","""event"",""trial"",""time""
""fullscreenenter"",""0"",""26355""
","
","
","""event"",""trial"",""time""
""fullscreenenter"",""0"",""26355""
","
","509.10000002384186","","","","","","","","50","0,0,0","1","mountain","55","probe-22","0.15583690756855376","0.6878199036579364","0.2974339423503136","0","","","","","","","",""
"","html-keyboard-response","205","1041833","0.0-112.0-1.0","""event"",""trial"",""time""
""fullscreenenter"",""0"",""26355""
","
","
","""event"",""trial"",""time""
""fullscreenenter"",""0"",""26355""
","
","null","<p></p>","null","","","","","","","","","","","","","","","","","","","","","","",""
"","do_trial","206","1047114","0.0-113.0-0.0","""event"",""trial"",""time""
""fullscreenenter"",""0"",""26355""
","
","
","""event"",""trial"",""time""
""fullscreenenter"",""0"",""26355""
","
","712.1999999284744","","","","","","","","50","0,1,0","1","mountain","56","probe-21","0.16263985742132406","0.70354272267446","0.2868442806062512","1","","","","","","","",""
"","html-keyboard-response","207","1048117","0.0-113.0-1.0","""event"",""trial"",""time""
""fullscreenenter"",""0"",""26355""
","
","
","""event"",""trial"",""time""
""fullscreenenter"",""0"",""26355""
","
","null","<p></p>","null","","","","","","","","","","","","","","","","","","","","","","",""
"","do_trial","208","1053388","0.0-114.0-0.0","""event"",""trial"",""time""
""fullscreenenter"",""0"",""26355""
","
","
","""event"",""trial"",""time""
""fullscreenenter"",""0"",""26355""
","
","696.7999999523163","","","","","","","","51","0,1,0","1","mountain","57","probe-19","0.13033678405540486","0.6661253988776094","0.19811481433348682","0","","","","","","","",""
"","html-keyboard-response","209","1054399","0.0-114.0-1.0","""event"",""trial"",""time""
""fullscreenenter"",""0"",""26355""
","
","
","""event"",""trial"",""time""
""fullscreenenter"",""0"",""26355""
","
","null","<p></p>","null","","","","","","","","","","","","","","","","","","","","","","",""
"","do_trial","210","1059740","0.0-115.0-0.0","""event"",""trial"",""time""
""fullscreenenter"",""0"",""26355""
","
","
","""event"",""trial"",""time""
""fullscreenenter"",""0"",""26355""
","
","757.6000000238419","","","","","","","","51","1,1,0","1","mountain","58","probe-24","0.1797131748377898","0.7040800734602753","0.2638521407680808","0","","","","","","","",""
"","html-keyboard-response","211","1060755","0.0-115.0-1.0","""event"",""trial"",""time""
""fullscreenenter"",""0"",""26355""
","
","
","""event"",""trial"",""time""
""fullscreenenter"",""0"",""26355""
","
","null","<p></p>","null","","","","","","","","","","","","","","","","","","","","","","",""
"","do_trial","212","1065937","0.0-116.0-0.0","""event"",""trial"",""time""
""fullscreenenter"",""0"",""26355""
","
","
","""event"",""trial"",""time""
""fullscreenenter"",""0"",""26355""
","
","624.5","","","","","","","","51","0,0,1","1","mountain","59","probe-151","0.12150076275377039","0.7760683207768554","0.27138225499164764","1","","","","","","","",""
"","html-keyboard-response","213","1066947","0.0-116.0-1.0","""event"",""trial"",""time""
""fullscreenenter"",""0"",""26355""
","
","
","""event"",""trial"",""time""
""fullscreenenter"",""0"",""26355""
","
","null","<p></p>","null","","","","","","","","","","","","","","","","","","","","","","",""
"","do_trial","214","1073032","0.0-117.0-0.0","""event"",""trial"",""time""
""fullscreenenter"",""0"",""26355""
","
","
","""event"",""trial"",""time""
""fullscreenenter"",""0"",""26355""
","
","1522.6000000238419","","","","","","","","51","0,1,0","1","mountain","60","probe-224","0.1877949750350735","0.7594116906946105","0.2917180074638183","0","","","","","","","",""
"","html-keyboard-response","215","1074048","0.0-117.0-1.0","""event"",""trial"",""time""
""fullscreenenter"",""0"",""26355""
","
","
","""event"",""trial"",""time""
""fullscreenenter"",""0"",""26355""
","
","null","<p></p>","null","","","","","","","","","","","","","","","","","","","","","","",""
"","do_trial","216","1079316","0.0-118.0-0.0","""event"",""trial"",""time""
""fullscreenenter"",""0"",""26355""
","
","
","""event"",""trial"",""time""
""fullscreenenter"",""0"",""26355""
","
","700.1999999284744","","","","","","","","51","0,1,0","1","mountain","61","probe-214","0.17000605932038532","0.7900202914240122","0.39141337074275273","0","","","","","","","",""
"","html-keyboard-response","217","1080323","0.0-118.0-1.0","""event"",""trial"",""time""
""fullscreenenter"",""0"",""26355""
","
","
","""event"",""trial"",""time""
""fullscreenenter"",""0"",""26355""
","
","null","<p></p>","null","","","","","","","","","","","","","","","","","","","","","","",""
"","do_trial","218","1085281","0.0-119.0-0.0","""event"",""trial"",""time""
""fullscreenenter"",""0"",""26355""
","
","
","""event"",""trial"",""time""
""fullscreenenter"",""0"",""26355""
","
","387.90000009536743","","","","","","","","51","0,0,1","1","mountain","62","probe-84","0.17509818219560871","0.751578651705862","0.34622013920428224","1","","","","","","","",""
"","html-keyboard-response","219","1086288","0.0-119.0-1.0","""event"",""trial"",""time""
""fullscreenenter"",""0"",""26355""
","
","
","""event"",""trial"",""time""
""fullscreenenter"",""0"",""26355""
","
","null","<p></p>","null","","","","","","","","","","","","","","","","","","","","","","",""
"","do_trial","220","1091832","0.0-120.0-0.0","""event"",""trial"",""time""
""fullscreenenter"",""0"",""26355""
","
","
","""event"",""trial"",""time""
""fullscreenenter"",""0"",""26355""
","
","978.6999999284744","","","","","","","","51","1,1,1","1","mountain","63","probe-63","0.2494472231806136","0.7224235143982497","0.36438118420387616","1","","","","","","","",""
"","html-keyboard-response","221","1092838","0.0-120.0-1.0","""event"",""trial"",""time""
""fullscreenenter"",""0"",""26355""
","
","
","""event"",""trial"",""time""
""fullscreenenter"",""0"",""26355""
","
","null","<p></p>","null","","","","","","","","","","","","","","","","","","","","","","",""
"","do_trial","222","1097487","0.0-121.0-0.0","""event"",""trial"",""time""
""fullscreenenter"",""0"",""26355""
","
","
","""event"",""trial"",""time""
""fullscreenenter"",""0"",""26355""
","
","82.5","","","","","","","","51","0,1,0","1","mountain","64","probe-119","0.17942273829491825","0.7232458325117636","0.31651016349551725","0","","","","","","","",""
"","html-keyboard-response","223","1098494","0.0-121.0-1.0","""event"",""trial"",""time""
""fullscreenenter"",""0"",""26355""
","
","
","""event"",""trial"",""time""
""fullscreenenter"",""0"",""26355""
","
","null","<p></p>","null","","","","","","","","","","","","","","","","","","","","","","",""
"","do_trial","224","1103449","0.0-122.0-0.0","""event"",""trial"",""time""
""fullscreenenter"",""0"",""26355""
","
","
","""event"",""trial"",""time""
""fullscreenenter"",""0"",""26355""
","
","386.7999999523163","","","","","","","","51","0,1,0","1","mountain","65","probe-53","0.07917605278745925","0.5707863035806778","0.18203907822894805","0","","","","","","","",""
"","html-keyboard-response","225","1104465","0.0-122.0-1.0","""event"",""trial"",""time""
""fullscreenenter"",""0"",""26355""
","
","
","""event"",""trial"",""time""
""fullscreenenter"",""0"",""26355""
","
","null","<p></p>","null","","","","","","","","","","","","","","","","","","","","","","",""
"","do_trial","226","1109480","0.0-123.0-0.0","""event"",""trial"",""time""
""fullscreenenter"",""0"",""26355""
","
","
","""event"",""trial"",""time""
""fullscreenenter"",""0"",""26355""
","
","441.5","","","","","","","","51","0,0,0","1","mountain","66","probe-121","0.07205717699718987","0.583717331985083","0.23160524665825358","0","","","","","","","",""
"","html-keyboard-response","227","1110495","0.0-123.0-1.0","""event"",""trial"",""time""
""fullscreenenter"",""0"",""26355""
","
","
","""event"",""trial"",""time""
""fullscreenenter"",""0"",""26355""
","
","null","<p></p>","null","","","","","","","","","","","","","","","","","","","","","","",""
"","do_trial","228","1115514","0.0-124.0-0.0","""event"",""trial"",""time""
""fullscreenenter"",""0"",""26355""
","
","
","""event"",""trial"",""time""
""fullscreenenter"",""0"",""26355""
","
","441.39999997615814","","","","","","","","49","0,1,0","1","mountain","67","probe-205","0.15864232037176854","0.6538237783840966","0.21933536142492094","0","","","","","","","",""
"","html-keyboard-response","229","1116531","0.0-124.0-1.0","""event"",""trial"",""time""
""fullscreenenter"",""0"",""26355""
","
","
","""event"",""trial"",""time""
""fullscreenenter"",""0"",""26355""
","
","null","<p></p>","null","","","","","","","","","","","","","","","","","","","","","","",""
"","do_trial","230","1121855","0.0-125.0-0.0","""event"",""trial"",""time""
""fullscreenenter"",""0"",""26355""
","
","
","""event"",""trial"",""time""
""fullscreenenter"",""0"",""26355""
","
","755.1000000238419","","","","","","","","49","0,0,0","1","mountain","68","probe-72","0.19359181991114136","0.7170941722582266","0.20107375878429212","0","","","","","","","",""
"","html-keyboard-response","231","1122863","0.0-125.0-1.0","""event"",""trial"",""time""
""fullscreenenter"",""0"",""26355""
","
","
","""event"",""trial"",""time""
""fullscreenenter"",""0"",""26355""
","
","null","<p></p>","null","","","","","","","","","","","","","","","","","","","","","","",""
"","do_trial","232","1128022","0.0-126.0-0.0","""event"",""trial"",""time""
""fullscreenenter"",""0"",""26355""
","
","
","""event"",""trial"",""time""
""fullscreenenter"",""0"",""26355""
","
","591.2999999523163","","","","","","","","49","0,1,0","1","mountain","69","probe-05","0.05356590975668235","0.5996299073865526","0.3322998874806612","0","","","","","","","",""
"","html-keyboard-response","233","1129030","0.0-126.0-1.0","""event"",""trial"",""time""
""fullscreenenter"",""0"",""26355""
","
","
","""event"",""trial"",""time""
""fullscreenenter"",""0"",""26355""
","
","null","<p></p>","null","","","","","","","","","","","","","","","","","","","","","","",""
"","do_bye","234","1130547","0.0-127.0-0.0","""event"",""trial"",""time""
""fullscreenenter"",""0"",""26355""
","
","
","""event"",""trial"",""time""
""fullscreenenter"",""0"",""26355""
","
","null","","","","","","","","null","","","","","","","","","","","","","","","","",""
"","break","235","1250563","0.0-127.0-1.0","""event"",""trial"",""time""
""fullscreenenter"",""0"",""26355""
","
","
","""event"",""trial"",""time""
""fullscreenenter"",""0"",""26355""
","
","null","<div class='center'><p>Time to take a quick break! You have 2 minutes to rest, but you can move on sooner if you'd like.</p><p> Press the <b>space bar</b> to continue.</p></div>","null","","","","","","","","","","","","","","","","","","","","","","",""
"","do_travel","236","1259580","0.0-128.0-0.0","""event"",""trial"",""time""
""fullscreenenter"",""0"",""26355""
","
","
","""event"",""trial"",""time""
""fullscreenenter"",""0"",""26355""
","
","null","","","","","","","","null","","","","","","","","","","","","","","","","",""
"","do_welcome","237","1263611","0.0-128.0-1.0","""event"",""trial"",""time""
""fullscreenenter"",""0"",""26355""
","
","
","""event"",""trial"",""time""
""fullscreenenter"",""0"",""26355""
","
","null","","","","","","","","null","","","","","","","","","","","","","","","","",""
"","do_trial","238","1269651","0.0-129.0-0.0","""event"",""trial"",""time""
""fullscreenenter"",""0"",""26355""
","
","
","""event"",""trial"",""time""
""fullscreenenter"",""0"",""26355""
","
","1455","","","","","","","","49","0,1,1","2","highway","70","probe-154","0.06756426104144303","1","0.3439055918500657","0","","","","","","","",""
"","html-keyboard-response","239","1270660","0.0-129.0-1.0","""event"",""trial"",""time""
""fullscreenenter"",""0"",""26355""
","
","
","""event"",""trial"",""time""
""fullscreenenter"",""0"",""26355""
","
","null","<p></p>","null","","","","","","","","","","","","","","","","","","","","","","",""
"","do_trial","240","1276009","0.0-130.0-0.0","""event"",""trial"",""time""
""fullscreenenter"",""0"",""26355""
","
","
","""event"",""trial"",""time""
""fullscreenenter"",""0"",""26355""
","
","781.2000000476837","","","","","","","","49","0,1,0","2","highway","71","probe-175","0.07880120920419352","1","0.4120354395733204","0","","","","","","","",""
"","html-keyboard-response","241","1277022","0.0-130.0-1.0","""event"",""trial"",""time""
""fullscreenenter"",""0"",""26355""
","
","
","""event"",""trial"",""time""
""fullscreenenter"",""0"",""26355""
","
","null","<p></p>","null","","","","","","","","","","","","","","","","","","","","","","",""
"","do_trial","242","1282217","0.0-131.0-0.0","""event"",""trial"",""time""
""fullscreenenter"",""0"",""26355""
","
","
","""event"",""trial"",""time""
""fullscreenenter"",""0"",""26355""
","
","635","","","","","","","","49","0,0,0","2","highway","72","probe-66","0.10503241944329396","0.7821895529786024","0.24585575722206046","0","","","","","","","",""
"","html-keyboard-response","243","1283231","0.0-131.0-1.0","""event"",""trial"",""time""
""fullscreenenter"",""0"",""26355""
","
","
","""event"",""trial"",""time""
""fullscreenenter"",""0"",""26355""
","
","null","<p></p>","null","","","","","","","","","","","","","","","","","","","","","","",""
"","do_trial","244","1289457","0.0-132.0-0.0","""event"",""trial"",""time""
""fullscreenenter"",""0"",""26355""
","
","
","""event"",""trial"",""time""
""fullscreenenter"",""0"",""26355""
","
","1664.5","","","","","","","","49","0,0,1","2","highway","73","probe-15","0.08443495590093276","0.858437954572015","0.27888751512298976","0","","","","","","","",""
"","html-keyboard-response","245","1290471","0.0-132.0-1.0","""event"",""trial"",""time""
""fullscreenenter"",""0"",""26355""
","
","
","""event"",""trial"",""time""
""fullscreenenter"",""0"",""26355""
","
","null","<p></p>","null","","","","","","","","","","","","","","","","","","","","","","",""
"","do_trial","246","1295788","0.0-133.0-0.0","""event"",""trial"",""time""
""fullscreenenter"",""0"",""26355""
","
","
","""event"",""trial"",""time""
""fullscreenenter"",""0"",""26355""
","
","740","","","","","","","","49","0,1,0","2","highway","74","probe-59","0.23907164763461147","0.6408155140395445","0.19068115779347714","0","","","","","","","",""
"","html-keyboard-response","247","1296799","0.0-133.0-1.0","""event"",""trial"",""time""
""fullscreenenter"",""0"",""26355""
","
","
","""event"",""trial"",""time""
""fullscreenenter"",""0"",""26355""
","
","null","<p></p>","null","","","","","","","","","","","","","","","","","","","","","","",""
"","do_trial","248","1301824","0.0-134.0-0.0","""event"",""trial"",""time""
""fullscreenenter"",""0"",""26355""
","
","
","""event"",""trial"",""time""
""fullscreenenter"",""0"",""26355""
","
","449.7999999523163","","","","","","","","49","0,1,0","2","highway","75","probe-64","0.27942344573955974","0.7320398577918799","0.22684060505960496","0","","","","","","","",""
"","html-keyboard-response","249","1302831","0.0-134.0-1.0","""event"",""trial"",""time""
""fullscreenenter"",""0"",""26355""
","
","
","""event"",""trial"",""time""
""fullscreenenter"",""0"",""26355""
","
","null","<p></p>","null","","","","","","","","","","","","","","","","","","","","","","",""
"","do_trial","250","1307955","0.0-135.0-0.0","""event"",""trial"",""time""
""fullscreenenter"",""0"",""26355""
","
","
","""event"",""trial"",""time""
""fullscreenenter"",""0"",""26355""
","
","531.1000000238419","","","","","","","","49","0,0,0","2","highway","76","probe-227","0.28304308059937483","0.6077314433697292","0.3023251949561599","0","","","","","","","",""
"","html-keyboard-response","251","1308964","0.0-135.0-1.0","""event"",""trial"",""time""
""fullscreenenter"",""0"",""26355""
","
","
","""event"",""trial"",""time""
""fullscreenenter"",""0"",""26355""
","
","null","<p></p>","null","","","","","","","","","","","","","","","","","","","","","","",""
"","do_trial","252","1314153","0.0-136.0-0.0","""event"",""trial"",""time""
""fullscreenenter"",""0"",""26355""
","
","
","""event"",""trial"",""time""
""fullscreenenter"",""0"",""26355""
","
","622.6999999284744","","","","","","","","49","1,0,1","2","highway","77","probe-171","0.29761695334501836","0.4563910139123801","0.4120417900278247","1","","","","","","","",""
"","html-keyboard-response","253","1315173","0.0-136.0-1.0","""event"",""trial"",""time""
""fullscreenenter"",""0"",""26355""
","
","
","""event"",""trial"",""time""
""fullscreenenter"",""0"",""26355""
","
","null","<p></p>","null","","","","","","","","","","","","","","","","","","","","","","",""
"","do_trial","254","1320290","0.0-137.0-0.0","""event"",""trial"",""time""
""fullscreenenter"",""0"",""26355""
","
","
","""event"",""trial"",""time""
""fullscreenenter"",""0"",""26355""
","
","551.2999999523163","","","","","","","","49","1,0,1","2","highway","78","probe-123","0.2727075121754958","0.459830721600036","0.22398261810135867","1","","","","","","","",""
"","html-keyboard-response","255","1321305","0.0-137.0-1.0","""event"",""trial"",""time""
""fullscreenenter"",""0"",""26355""
","
","
","""event"",""trial"",""time""
""fullscreenenter"",""0"",""26355""
","
","null","<p></p>","null","","","","","","","","","","","","","","","","","","","","","","",""
"","do_trial","256","1326450","0.0-138.0-0.0","""event"",""trial"",""time""
""fullscreenenter"",""0"",""26355""
","
","
","""event"",""trial"",""time""
""fullscreenenter"",""0"",""26355""
","
","559","","","","","","","","49","1,1,0","2","highway","79","probe-186","0.2574037454325325","0.4982277326752373","0.41755147484303834","1","","","","","","","",""
"","html-keyboard-response","257","1327465","0.0-138.0-1.0","""event"",""trial"",""time""
""fullscreenenter"",""0"",""26355""
","
","
","""event"",""trial"",""time""
""fullscreenenter"",""0"",""26355""
","
","null","<p></p>","null","","","","","","","","","","","","","","","","","","","","","","",""
"","do_trial","258","1333320","0.0-139.0-0.0","""event"",""trial"",""time""
""fullscreenenter"",""0"",""26355""
","
","
","""event"",""trial"",""time""
""fullscreenenter"",""0"",""26355""
","
","1285.2000000476837","","","","","","","","49","0,1,0","2","highway","80","probe-50","0.33171506523150457","0.409471973727398","0.3927783685512284","0","","","","","","","",""
"","html-keyboard-response","259","1334331","0.0-139.0-1.0","""event"",""trial"",""time""
""fullscreenenter"",""0"",""26355""
","
","
","""event"",""trial"",""time""
""fullscreenenter"",""0"",""26355""
","
","null","<p></p>","null","","","","","","","","","","","","","","","","","","","","","","",""