"success","trial_type","trial_index","time_elapsed","internal_node_id","interactions","blur_events","focus_events","fullscreenenter_events","fullscreenexit_events","rt","stimulus","key_press","subject_id","participant_id","age","gender","prompt","response","choice_outcomes","context_n","context_img_id","trial_n","probe_img_id","pR_red","pR_white","pR_black","outcome","contextArray_ind","validImageProbes","invalidImageProbes","pRew_Red","pRew_White","pRew_Black","availableForMemProbe","choice_blocks"
"true","fullscreen","0","4494","0.0-0.0","""event"",""trial"",""time""
""focus"",""0"",""0""
""blur"",""0"",""0""
""focus"",""0"",""0""
""fullscreenenter"",""0"",""3715""
","""event"",""trial"",""time""
""blur"",""0"",""0""
","""event"",""trial"",""time""
""focus"",""0"",""0""
""focus"",""0"",""0""
","""event"",""trial"",""time""
""fullscreenenter"",""0"",""3715""
","
","","","","","","","","","","","","","","","","","","","","","","","","","",""
"","pavlovia","1","4501","0.0-1.0","""event"",""trial"",""time""
""focus"",""0"",""0""
""blur"",""0"",""0""
""focus"",""0"",""0""
""fullscreenenter"",""0"",""3715""
""fullscreenexit"",""2"",""21457""
""blur"",""2"",""25225""
","""event"",""trial"",""time""
""blur"",""0"",""0""
""blur"",""2"",""25225""
","""event"",""trial"",""time""
""focus"",""0"",""0""
""focus"",""0"",""0""
","""event"",""trial"",""time""
""fullscreenenter"",""0"",""3715""
","""event"",""trial"",""time""
""fullscreenexit"",""2"",""21457""
","","","","","","","","","","","","","","","","","","","","","","","","","",""
"","instruc1","2","49753","0.0-2.0","""event"",""trial"",""time""
""focus"",""0"",""0""
""blur"",""0"",""0""
""focus"",""0"",""0""
""fullscreenenter"",""0"",""3715""
""fullscreenexit"",""2"",""21457""
""blur"",""2"",""25225""
""focus"",""3"",""474684""
""blur"",""3"",""476884""
""focus"",""3"",""1274692""
","""event"",""trial"",""time""
""blur"",""0"",""0""
""blur"",""2"",""25225""
""blur"",""3"",""476884""
","""event"",""trial"",""time""
""focus"",""0"",""0""
""focus"",""0"",""0""
""focus"",""3"",""474684""
""focus"",""3"",""1274692""
","""event"",""trial"",""time""
""fullscreenenter"",""0"",""3715""
","""event"",""trial"",""time""
""fullscreenexit"",""2"",""21457""
","null","run_exp/static/audio/clip_1_welcome.m4a","null","295","37","16","Male","<div class='center'><p>Welcome! This is the first part of the study. It will last ~30 minutes. In part 1 and part 2 of the study, you are the head captain of a pirate ship traveling around the world to different islands. You will play a few different games throughout these two parts. Here is an overview of them:</p><br><p>Part 1 (today)</p><p>1. Instructions, practice game, and quiz</p><p>2. Pick a pirate game on 6 different islands</p><br><p>Part 2 (tomorrow)</p><p>3. Pick a pirate game and memory game</p><p>4. Where did you see this ship? </p></div>","","","","","","","","","","","","","","","","","",""
"","html-keyboard-response","3","1280689","0.0-3.0","""event"",""trial"",""time""
""focus"",""0"",""0""
""blur"",""0"",""0""
""focus"",""0"",""0""
""fullscreenenter"",""0"",""3715""
""fullscreenexit"",""2"",""21457""
""blur"",""2"",""25225""
""focus"",""3"",""474684""
""blur"",""3"",""476884""
""focus"",""3"",""1274692""
","""event"",""trial"",""time""
""blur"",""0"",""0""
""blur"",""2"",""25225""
""blur"",""3"",""476884""
","""event"",""trial"",""time""
""focus"",""0"",""0""
""focus"",""0"",""0""
""focus"",""3"",""474684""
""focus"",""3"",""1274692""
","""event"",""trial"",""time""
""fullscreenenter"",""0"",""3715""
","""event"",""trial"",""time""
""fullscreenexit"",""2"",""21457""
","1230933","<div class='center'><p>Welcome! This is the first part of the study. It will last ~30 minutes. In part 1 and part 2 of the study, you are the head captain of a pirate ship traveling around the world to different islands. You will play a few different games throughout these two parts. Here is an overview of them:</p><br><p>Part 1 (today)</p><p>1. Instructions, practice game, and quiz</p><p>2. Pick a pirate game on 6 different islands</p><br><p>Part 2 (tomorrow)</p><p>3. Pick a pirate game and memory game</p><p>4. Where did you see this ship? </p><p><b>[Press the space bar to continue]</b></p></div>","32","","","","","","","","","","","","","","","","","","","","","","",""
"","instruc2","4","1286130","0.0-4.0","""event"",""trial"",""time""
""focus"",""0"",""0""
""blur"",""0"",""0""
""focus"",""0"",""0""
""fullscreenenter"",""0"",""3715""
""fullscreenexit"",""2"",""21457""
""blur"",""2"",""25225""
""focus"",""3"",""474684""
""blur"",""3"",""476884""
""focus"",""3"",""1274692""
","""event"",""trial"",""time""
""blur"",""0"",""0""
""blur"",""2"",""25225""
""blur"",""3"",""476884""
","""event"",""trial"",""time""
""focus"",""0"",""0""
""focus"",""0"",""0""
""focus"",""3"",""474684""
""focus"",""3"",""1274692""
","""event"",""trial"",""time""
""fullscreenenter"",""0"",""3715""
","""event"",""trial"",""time""
""fullscreenexit"",""2"",""21457""
","null","run_exp/static/audio/clip_2_different_places.m4a","null","","","","","<div class='center'><p>Today, you’ll visit these 6 islands on your journey. You'll be able to see these islands from your ship.</p><p><img src='run_exp/static/images/contexts/all_contexts.png' height='500'></p></div>","","","","","","","","","","","","","","","","","",""
"","html-keyboard-response","5","1287648","0.0-5.0","""event"",""trial"",""time""
""focus"",""0"",""0""
""blur"",""0"",""0""
""focus"",""0"",""0""
""fullscreenenter"",""0"",""3715""
""fullscreenexit"",""2"",""21457""
""blur"",""2"",""25225""
""focus"",""3"",""474684""
""blur"",""3"",""476884""
""focus"",""3"",""1274692""
","""event"",""trial"",""time""
""blur"",""0"",""0""
""blur"",""2"",""25225""
""blur"",""3"",""476884""
","""event"",""trial"",""time""
""focus"",""0"",""0""
""focus"",""0"",""0""
""focus"",""3"",""474684""
""focus"",""3"",""1274692""
","""event"",""trial"",""time""
""fullscreenenter"",""0"",""3715""
","""event"",""trial"",""time""
""fullscreenexit"",""2"",""21457""
","1516","<div class='center'><p>Today, you’ll visit these 6 islands on your journey. You'll be able to see these islands from your ship.</p><p><img src='run_exp/static/images/contexts/all_contexts.png' height='500'></p><p><b>[Press the space bar to continue]</b></p></div>","32","","","","","","","","","","","","","","","","","","","","","","",""
"","instruc3","6","1297449","0.0-6.0","""event"",""trial"",""time""
""focus"",""0"",""0""
""blur"",""0"",""0""
""focus"",""0"",""0""
""fullscreenenter"",""0"",""3715""
""fullscreenexit"",""2"",""21457""
""blur"",""2"",""25225""
""focus"",""3"",""474684""
""blur"",""3"",""476884""
""focus"",""3"",""1274692""
","""event"",""trial"",""time""
""blur"",""0"",""0""
""blur"",""2"",""25225""
""blur"",""3"",""476884""
","""event"",""trial"",""time""
""focus"",""0"",""0""
""focus"",""0"",""0""
""focus"",""3"",""474684""
""focus"",""3"",""1274692""
","""event"",""trial"",""time""
""fullscreenenter"",""0"",""3715""
","""event"",""trial"",""time""
""fullscreenexit"",""2"",""21457""
","null","run_exp/static/audio/clip_3_goal_of_game_1.m4a","null","","","","","<div class='center'><p> The pirates on your ship will rob other ships as they leave the island.</p> These ships have just sold their goods to the islanders, so they will be filled with lots and lots of gold.</p><p><img src='run_exp/static/images/tutorial/ship_center.png' height='400'></p></div>","","","","","","","","","","","","","","","","","",""
"","html-keyboard-response","7","1300384","0.0-7.0","""event"",""trial"",""time""
""focus"",""0"",""0""
""blur"",""0"",""0""
""focus"",""0"",""0""
""fullscreenenter"",""0"",""3715""
""fullscreenexit"",""2"",""21457""
""blur"",""2"",""25225""
""focus"",""3"",""474684""
""blur"",""3"",""476884""
""focus"",""3"",""1274692""
","""event"",""trial"",""time""
""blur"",""0"",""0""
""blur"",""2"",""25225""
""blur"",""3"",""476884""
","""event"",""trial"",""time""
""focus"",""0"",""0""
""focus"",""0"",""0""
""focus"",""3"",""474684""
""focus"",""3"",""1274692""
","""event"",""trial"",""time""
""fullscreenenter"",""0"",""3715""
","""event"",""trial"",""time""
""fullscreenexit"",""2"",""21457""
","2934","<div class='center'><p> The pirates on your ship will rob other ships as they leave the island.</p> These ships have just sold their goods to the islanders, so they will be filled with lots and lots of gold.</p><p><img src='run_exp/static/images/tutorial/ship_center.png' height='400'></p><p><b>[Press the space bar to continue]</b></p></div>","32","","","","","","","","","","","","","","","","","","","","","","",""
"","instruc4","8","1328520","0.0-8.0","""event"",""trial"",""time""
""focus"",""0"",""0""
""blur"",""0"",""0""
""focus"",""0"",""0""
""fullscreenenter"",""0"",""3715""
""fullscreenexit"",""2"",""21457""
""blur"",""2"",""25225""
""focus"",""3"",""474684""
""blur"",""3"",""476884""
""focus"",""3"",""1274692""
","""event"",""trial"",""time""
""blur"",""0"",""0""
""blur"",""2"",""25225""
""blur"",""3"",""476884""
","""event"",""trial"",""time""
""focus"",""0"",""0""
""focus"",""0"",""0""
""focus"",""3"",""474684""
""focus"",""3"",""1274692""
","""event"",""trial"",""time""
""fullscreenenter"",""0"",""3715""
","""event"",""trial"",""time""
""fullscreenexit"",""2"",""21457""
","null","run_exp/static/audio/clip_4_goal_of_game_2.m4a","null","","","","","<div class='center'><p>As the head captain, you do not have to rob any ships yourself. Another pirate will be doing the robbing for you. First, you will choose a pirate to rob the next ship.</p><p><img src='run_exp/static/images/tutorial/pirates_all_crop.png' height='200'></p><p>Then, you'll see if the pirate successfully robbed the ship of their gold. If they were successful, then you'll get a stack of gold coins like this:</p><p><img src='run_exp/static/images/tutorial/reward.png' height='150'></p><p> If they were <b>not</b> successful, then you'll get no gold coins, and you'll see a big red x like this: </p><p><img src='run_exp/static/images/tutorial/reward_no.png' height='150'></p><p> How much bonus money you make is based on how many gold coins you collect.</p><div>","","","","","","","","","","","","","","","","","",""
"","html-keyboard-response","9","1329280","0.0-9.0","""event"",""trial"",""time""
""focus"",""0"",""0""
""blur"",""0"",""0""
""focus"",""0"",""0""
""fullscreenenter"",""0"",""3715""
""fullscreenexit"",""2"",""21457""
""blur"",""2"",""25225""
""focus"",""3"",""474684""
""blur"",""3"",""476884""
""focus"",""3"",""1274692""
","""event"",""trial"",""time""
""blur"",""0"",""0""
""blur"",""2"",""25225""
""blur"",""3"",""476884""
","""event"",""trial"",""time""
""focus"",""0"",""0""
""focus"",""0"",""0""
""focus"",""3"",""474684""
""focus"",""3"",""1274692""
","""event"",""trial"",""time""
""fullscreenenter"",""0"",""3715""
","""event"",""trial"",""time""
""fullscreenexit"",""2"",""21457""
","759","<div class='center'><p>As the head captain, you do not have to rob any ships yourself. Another pirate will be doing the robbing for you. First, you will choose a pirate to rob the next ship.</p><p><img src='run_exp/static/images/tutorial/pirates_all_crop.png' height='200'></p><p>Then, you'll see if the pirate successfully robbed the ship of their gold. If they were successful, then you'll get a stack of gold coins like this:</p><p><img src='run_exp/static/images/tutorial/reward.png' height='150'></p><p> If they were <b>not</b> successful, then you'll get no gold coins, and you'll see a big red x like this: </p><p><img src='run_exp/static/images/tutorial/reward_no.png' height='150'></p><p> How much bonus money you make is based on how many gold coins you collect.</p<p><b>[Press the space bar to continue]</b></p></div>","32","","","","","","","","","","","","","","","","","","","","","","",""
"","instruc5","10","1354607","0.0-10.0","""event"",""trial"",""time""
""focus"",""0"",""0""
""blur"",""0"",""0""
""focus"",""0"",""0""
""fullscreenenter"",""0"",""3715""
""fullscreenexit"",""2"",""21457""
""blur"",""2"",""25225""
""focus"",""3"",""474684""
""blur"",""3"",""476884""
""focus"",""3"",""1274692""
","""event"",""trial"",""time""
""blur"",""0"",""0""
""blur"",""2"",""25225""
""blur"",""3"",""476884""
","""event"",""trial"",""time""
""focus"",""0"",""0""
""focus"",""0"",""0""
""focus"",""3"",""474684""
""focus"",""3"",""1274692""
","""event"",""trial"",""time""
""fullscreenenter"",""0"",""3715""
","""event"",""trial"",""time""
""fullscreenexit"",""2"",""21457""
","25324","run_exp/static/audio/clip_5_probabilistic.m4a","49","","","","","<div class='center'><p>Even the most skilled pirate can not rob EVERY ship.</p><p> Some ships will have very strong protections against pirate attacks.</p><p> Blue beard, here, is very, very good at robbing ships, but he won't be successful every time he tries to rob one.</p><p> You can press the <b>‘1’</b> key on the keyboard to choose him.</p><p> Try choosing him 10 times to see how often he succeeds at robbing a ship. </p><p><img src='run_exp/static/images/tutorial/blue.png' height='500'></p></div>","","","","","","","","","","","","","","","","","",""
"","html-keyboard-response","11","1356109","0.0-11.0","""event"",""trial"",""time""
""focus"",""0"",""0""
""blur"",""0"",""0""
""focus"",""0"",""0""
""fullscreenenter"",""0"",""3715""
""fullscreenexit"",""2"",""21457""
""blur"",""2"",""25225""
""focus"",""3"",""474684""
""blur"",""3"",""476884""
""focus"",""3"",""1274692""
","""event"",""trial"",""time""
""blur"",""0"",""0""
""blur"",""2"",""25225""
""blur"",""3"",""476884""
","""event"",""trial"",""time""
""focus"",""0"",""0""
""focus"",""0"",""0""
""focus"",""3"",""474684""
""focus"",""3"",""1274692""
","""event"",""trial"",""time""
""fullscreenenter"",""0"",""3715""
","""event"",""trial"",""time""
""fullscreenexit"",""2"",""21457""
","null","<div class='center'><p><img src='run_exp/static/images/tutorial/blue_win.png' height='500'></p></div>","null","","","","","","","","","","","","","","","","","","","","","","",""
"","html-keyboard-response","12","1358096","0.0-12.0","""event"",""trial"",""time""
""focus"",""0"",""0""
""blur"",""0"",""0""
""focus"",""0"",""0""
""fullscreenenter"",""0"",""3715""
""fullscreenexit"",""2"",""21457""
""blur"",""2"",""25225""
""focus"",""3"",""474684""
""blur"",""3"",""476884""
""focus"",""3"",""1274692""
","""event"",""trial"",""time""
""blur"",""0"",""0""
""blur"",""2"",""25225""
""blur"",""3"",""476884""
","""event"",""trial"",""time""
""focus"",""0"",""0""
""focus"",""0"",""0""
""focus"",""3"",""474684""
""focus"",""3"",""1274692""
","""event"",""trial"",""time""
""fullscreenenter"",""0"",""3715""
","""event"",""trial"",""time""
""fullscreenexit"",""2"",""21457""
","1986","<div class='center'><img src='run_exp/static/images/tutorial/blue.png' height='500'></p></div>","49","","","","","","","","","","","","","","","","","","","","","","",""
"","html-keyboard-response","13","1359597","0.0-13.0","""event"",""trial"",""time""
""focus"",""0"",""0""
""blur"",""0"",""0""
""focus"",""0"",""0""
""fullscreenenter"",""0"",""3715""
""fullscreenexit"",""2"",""21457""
""blur"",""2"",""25225""
""focus"",""3"",""474684""
""blur"",""3"",""476884""
""focus"",""3"",""1274692""
","""event"",""trial"",""time""
""blur"",""0"",""0""
""blur"",""2"",""25225""
""blur"",""3"",""476884""
","""event"",""trial"",""time""
""focus"",""0"",""0""
""focus"",""0"",""0""
""focus"",""3"",""474684""
""focus"",""3"",""1274692""
","""event"",""trial"",""time""
""fullscreenenter"",""0"",""3715""
","""event"",""trial"",""time""
""fullscreenexit"",""2"",""21457""
","null","<div class='center'><p><img src='run_exp/static/images/tutorial/blue_win.png' height='500'></p></div>","null","","","","","","","","","","","","","","","","","","","","","","",""
"","html-keyboard-response","14","1362111","0.0-14.0","""event"",""trial"",""time""
""focus"",""0"",""0""
""blur"",""0"",""0""
""focus"",""0"",""0""
""fullscreenenter"",""0"",""3715""
""fullscreenexit"",""2"",""21457""
""blur"",""2"",""25225""
""focus"",""3"",""474684""
""blur"",""3"",""476884""
""focus"",""3"",""1274692""
","""event"",""trial"",""time""
""blur"",""0"",""0""
""blur"",""2"",""25225""
""blur"",""3"",""476884""
","""event"",""trial"",""time""
""focus"",""0"",""0""
""focus"",""0"",""0""
""focus"",""3"",""474684""
""focus"",""3"",""1274692""
","""event"",""trial"",""time""
""fullscreenenter"",""0"",""3715""
","""event"",""trial"",""time""
""fullscreenexit"",""2"",""21457""
","2513","<div class='center'><img src='run_exp/static/images/tutorial/blue.png' height='500'></p></div>","49","","","","","","","","","","","","","","","","","","","","","","",""
"","html-keyboard-response","15","1363612","0.0-15.0","""event"",""trial"",""time""
""focus"",""0"",""0""
""blur"",""0"",""0""
""focus"",""0"",""0""
""fullscreenenter"",""0"",""3715""
""fullscreenexit"",""2"",""21457""
""blur"",""2"",""25225""
""focus"",""3"",""474684""
""blur"",""3"",""476884""
""focus"",""3"",""1274692""
","""event"",""trial"",""time""
""blur"",""0"",""0""
""blur"",""2"",""25225""
""blur"",""3"",""476884""
","""event"",""trial"",""time""
""focus"",""0"",""0""
""focus"",""0"",""0""
""focus"",""3"",""474684""
""focus"",""3"",""1274692""
","""event"",""trial"",""time""
""fullscreenenter"",""0"",""3715""
","""event"",""trial"",""time""
""fullscreenexit"",""2"",""21457""
","null","<div class='center'><p><img src='run_exp/static/images/tutorial/blue_win.png' height='500'></p></div>","null","","","","","","","","","","","","","","","","","","","","","","",""
"","html-keyboard-response","16","1364336","0.0-16.0","""event"",""trial"",""time""
""focus"",""0"",""0""
""blur"",""0"",""0""
""focus"",""0"",""0""
""fullscreenenter"",""0"",""3715""
""fullscreenexit"",""2"",""21457""
""blur"",""2"",""25225""
""focus"",""3"",""474684""
""blur"",""3"",""476884""
""focus"",""3"",""1274692""
","""event"",""trial"",""time""
""blur"",""0"",""0""
""blur"",""2"",""25225""
""blur"",""3"",""476884""
","""event"",""trial"",""time""
""focus"",""0"",""0""
""focus"",""0"",""0""
""focus"",""3"",""474684""
""focus"",""3"",""1274692""
","""event"",""trial"",""time""
""fullscreenenter"",""0"",""3715""
","""event"",""trial"",""time""
""fullscreenexit"",""2"",""21457""
","721","<div class='center'><img src='run_exp/static/images/tutorial/blue.png' height='500'></p></div>","49","","","","","","","","","","","","","","","","","","","","","","",""
"","html-keyboard-response","17","1365838","0.0-17.0","""event"",""trial"",""time""
""focus"",""0"",""0""
""blur"",""0"",""0""
""focus"",""0"",""0""
""fullscreenenter"",""0"",""3715""
""fullscreenexit"",""2"",""21457""
""blur"",""2"",""25225""
""focus"",""3"",""474684""
""blur"",""3"",""476884""
""focus"",""3"",""1274692""
","""event"",""trial"",""time""
""blur"",""0"",""0""
""blur"",""2"",""25225""
""blur"",""3"",""476884""
","""event"",""trial"",""time""
""focus"",""0"",""0""
""focus"",""0"",""0""
""focus"",""3"",""474684""
""focus"",""3"",""1274692""
","""event"",""trial"",""time""
""fullscreenenter"",""0"",""3715""
","""event"",""trial"",""time""
""fullscreenexit"",""2"",""21457""
","null","<div class='center'><p><img src='run_exp/static/images/tutorial/blue_no_win.png' height='500'></p></div>","null","","","","","","","","","","","","","","","","","","","","","","",""
"","html-keyboard-response","18","1366511","0.0-18.0","""event"",""trial"",""time""
""focus"",""0"",""0""
""blur"",""0"",""0""
""focus"",""0"",""0""
""fullscreenenter"",""0"",""3715""
""fullscreenexit"",""2"",""21457""
""blur"",""2"",""25225""
""focus"",""3"",""474684""
""blur"",""3"",""476884""
""focus"",""3"",""1274692""
","""event"",""trial"",""time""
""blur"",""0"",""0""
""blur"",""2"",""25225""
""blur"",""3"",""476884""
","""event"",""trial"",""time""
""focus"",""0"",""0""
""focus"",""0"",""0""
""focus"",""3"",""474684""
""focus"",""3"",""1274692""
","""event"",""trial"",""time""
""fullscreenenter"",""0"",""3715""
","""event"",""trial"",""time""
""fullscreenexit"",""2"",""21457""
","674","<div class='center'><img src='run_exp/static/images/tutorial/blue.png' height='500'></p></div>","49","","","","","","","","","","","","","","","","","","","","","","",""
"","html-keyboard-response","19","1368013","0.0-19.0","""event"",""trial"",""time""
""focus"",""0"",""0""
""blur"",""0"",""0""
""focus"",""0"",""0""
""fullscreenenter"",""0"",""3715""
""fullscreenexit"",""2"",""21457""
""blur"",""2"",""25225""
""focus"",""3"",""474684""
""blur"",""3"",""476884""
""focus"",""3"",""1274692""
","""event"",""trial"",""time""
""blur"",""0"",""0""
""blur"",""2"",""25225""
""blur"",""3"",""476884""
","""event"",""trial"",""time""
""focus"",""0"",""0""
""focus"",""0"",""0""
""focus"",""3"",""474684""
""focus"",""3"",""1274692""
","""event"",""trial"",""time""
""fullscreenenter"",""0"",""3715""
","""event"",""trial"",""time""
""fullscreenexit"",""2"",""21457""
","null","<div class='center'><p><img src='run_exp/static/images/tutorial/blue_win.png' height='500'></p></div>","null","","","","","","","","","","","","","","","","","","","","","","",""
"","html-keyboard-response","20","1368640","0.0-20.0","""event"",""trial"",""time""
""focus"",""0"",""0""
""blur"",""0"",""0""
""focus"",""0"",""0""
""fullscreenenter"",""0"",""3715""
""fullscreenexit"",""2"",""21457""
""blur"",""2"",""25225""
""focus"",""3"",""474684""
""blur"",""3"",""476884""
""focus"",""3"",""1274692""
","""event"",""trial"",""time""
""blur"",""0"",""0""
""blur"",""2"",""25225""
""blur"",""3"",""476884""
","""event"",""trial"",""time""
""focus"",""0"",""0""
""focus"",""0"",""0""
""focus"",""3"",""474684""
""focus"",""3"",""1274692""
","""event"",""trial"",""time""
""fullscreenenter"",""0"",""3715""
","""event"",""trial"",""time""
""fullscreenexit"",""2"",""21457""
","626","<div class='center'><img src='run_exp/static/images/tutorial/blue.png' height='500'></p></div>","49","","","","","","","","","","","","","","","","","","","","","","",""
"","html-keyboard-response","21","1370141","0.0-21.0","""event"",""trial"",""time""
""focus"",""0"",""0""
""blur"",""0"",""0""
""focus"",""0"",""0""
""fullscreenenter"",""0"",""3715""
""fullscreenexit"",""2"",""21457""
""blur"",""2"",""25225""
""focus"",""3"",""474684""
""blur"",""3"",""476884""
""focus"",""3"",""1274692""
","""event"",""trial"",""time""
""blur"",""0"",""0""
""blur"",""2"",""25225""
""blur"",""3"",""476884""
","""event"",""trial"",""time""
""focus"",""0"",""0""
""focus"",""0"",""0""
""focus"",""3"",""474684""
""focus"",""3"",""1274692""
","""event"",""trial"",""time""
""fullscreenenter"",""0"",""3715""
","""event"",""trial"",""time""
""fullscreenexit"",""2"",""21457""
","null","<div class='center'><p><img src='run_exp/static/images/tutorial/blue_win.png' height='500'></p></div>","null","","","","","","","","","","","","","","","","","","","","","","",""
"","html-keyboard-response","22","1370623","0.0-22.0","""event"",""trial"",""time""
""focus"",""0"",""0""
""blur"",""0"",""0""
""focus"",""0"",""0""
""fullscreenenter"",""0"",""3715""
""fullscreenexit"",""2"",""21457""
""blur"",""2"",""25225""
""focus"",""3"",""474684""
""blur"",""3"",""476884""
""focus"",""3"",""1274692""
","""event"",""trial"",""time""
""blur"",""0"",""0""
""blur"",""2"",""25225""
""blur"",""3"",""476884""
","""event"",""trial"",""time""
""focus"",""0"",""0""
""focus"",""0"",""0""
""focus"",""3"",""474684""
""focus"",""3"",""1274692""
","""event"",""trial"",""time""
""fullscreenenter"",""0"",""3715""
","""event"",""trial"",""time""
""fullscreenexit"",""2"",""21457""
","482","<div class='center'><img src='run_exp/static/images/tutorial/blue.png' height='500'></p></div>","49","","","","","","","","","","","","","","","","","","","","","","",""
"","html-keyboard-response","23","1372124","0.0-23.0","""event"",""trial"",""time""
""focus"",""0"",""0""
""blur"",""0"",""0""
""focus"",""0"",""0""
""fullscreenenter"",""0"",""3715""
""fullscreenexit"",""2"",""21457""
""blur"",""2"",""25225""
""focus"",""3"",""474684""
""blur"",""3"",""476884""
""focus"",""3"",""1274692""
","""event"",""trial"",""time""
""blur"",""0"",""0""
""blur"",""2"",""25225""
""blur"",""3"",""476884""
","""event"",""trial"",""time""
""focus"",""0"",""0""
""focus"",""0"",""0""
""focus"",""3"",""474684""
""focus"",""3"",""1274692""
","""event"",""trial"",""time""
""fullscreenenter"",""0"",""3715""
","""event"",""trial"",""time""
""fullscreenexit"",""2"",""21457""
","null","<div class='center'><p><img src='run_exp/static/images/tutorial/blue_win.png' height='500'></p></div>","null","","","","","","","","","","","","","","","","","","","","","","",""
"","html-keyboard-response","24","1372719","0.0-24.0","""event"",""trial"",""time""
""focus"",""0"",""0""
""blur"",""0"",""0""
""focus"",""0"",""0""
""fullscreenenter"",""0"",""3715""
""fullscreenexit"",""2"",""21457""
""blur"",""2"",""25225""
""focus"",""3"",""474684""
""blur"",""3"",""476884""
""focus"",""3"",""1274692""
","""event"",""trial"",""time""
""blur"",""0"",""0""
""blur"",""2"",""25225""
""blur"",""3"",""476884""
","""event"",""trial"",""time""
""focus"",""0"",""0""
""focus"",""0"",""0""
""focus"",""3"",""474684""
""focus"",""3"",""1274692""
","""event"",""trial"",""time""
""fullscreenenter"",""0"",""3715""
","""event"",""trial"",""time""
""fullscreenexit"",""2"",""21457""
","593","<div class='center'><img src='run_exp/static/images/tutorial/blue.png' height='500'></p></div>","49","","","","","","","","","","","","","","","","","","","","","","",""
"","html-keyboard-response","25","1374221","0.0-25.0","""event"",""trial"",""time""
""focus"",""0"",""0""
""blur"",""0"",""0""
""focus"",""0"",""0""
""fullscreenenter"",""0"",""3715""
""fullscreenexit"",""2"",""21457""
""blur"",""2"",""25225""
""focus"",""3"",""474684""
""blur"",""3"",""476884""
""focus"",""3"",""1274692""
","""event"",""trial"",""time""
""blur"",""0"",""0""
""blur"",""2"",""25225""
""blur"",""3"",""476884""
","""event"",""trial"",""time""
""focus"",""0"",""0""
""focus"",""0"",""0""
""focus"",""3"",""474684""
""focus"",""3"",""1274692""
","""event"",""trial"",""time""
""fullscreenenter"",""0"",""3715""
","""event"",""trial"",""time""
""fullscreenexit"",""2"",""21457""
","null","<div class='center'><p><img src='run_exp/static/images/tutorial/blue_no_win.png' height='500'></p></div>","null","","","","","","","","","","","","","","","","","","","","","","",""
"","html-keyboard-response","26","1374911","0.0-26.0","""event"",""trial"",""time""
""focus"",""0"",""0""
""blur"",""0"",""0""
""focus"",""0"",""0""
""fullscreenenter"",""0"",""3715""
""fullscreenexit"",""2"",""21457""
""blur"",""2"",""25225""
""focus"",""3"",""474684""
""blur"",""3"",""476884""
""focus"",""3"",""1274692""
","""event"",""trial"",""time""
""blur"",""0"",""0""
""blur"",""2"",""25225""
""blur"",""3"",""476884""
","""event"",""trial"",""time""
""focus"",""0"",""0""
""focus"",""0"",""0""
""focus"",""3"",""474684""
""focus"",""3"",""1274692""
","""event"",""trial"",""time""
""fullscreenenter"",""0"",""3715""
","""event"",""trial"",""time""
""fullscreenexit"",""2"",""21457""
","689","<div class='center'><img src='run_exp/static/images/tutorial/blue.png' height='500'></p></div>","49","","","","","","","","","","","","","","","","","","","","","","",""
"","html-keyboard-response","27","1376414","0.0-27.0","""event"",""trial"",""time""
""focus"",""0"",""0""
""blur"",""0"",""0""
""focus"",""0"",""0""
""fullscreenenter"",""0"",""3715""
""fullscreenexit"",""2"",""21457""
""blur"",""2"",""25225""
""focus"",""3"",""474684""
""blur"",""3"",""476884""
""focus"",""3"",""1274692""
","""event"",""trial"",""time""
""blur"",""0"",""0""
""blur"",""2"",""25225""
""blur"",""3"",""476884""
","""event"",""trial"",""time""
""focus"",""0"",""0""
""focus"",""0"",""0""
""focus"",""3"",""474684""
""focus"",""3"",""1274692""
","""event"",""trial"",""time""
""fullscreenenter"",""0"",""3715""
","""event"",""trial"",""time""
""fullscreenexit"",""2"",""21457""
","null","<div class='center'><p><img src='run_exp/static/images/tutorial/blue_win.png' height='500'></p></div>","null","","","","","","","","","","","","","","","","","","","","","","",""
"","html-keyboard-response","28","1376959","0.0-28.0","""event"",""trial"",""time""
""focus"",""0"",""0""
""blur"",""0"",""0""
""focus"",""0"",""0""
""fullscreenenter"",""0"",""3715""
""fullscreenexit"",""2"",""21457""
""blur"",""2"",""25225""
""focus"",""3"",""474684""
""blur"",""3"",""476884""
""focus"",""3"",""1274692""
","""event"",""trial"",""time""
""blur"",""0"",""0""
""blur"",""2"",""25225""
""blur"",""3"",""476884""
","""event"",""trial"",""time""
""focus"",""0"",""0""
""focus"",""0"",""0""
""focus"",""3"",""474684""
""focus"",""3"",""1274692""
","""event"",""trial"",""time""
""fullscreenenter"",""0"",""3715""
","""event"",""trial"",""time""
""fullscreenexit"",""2"",""21457""
","545","<div class='center'><img src='run_exp/static/images/tutorial/blue.png' height='500'></p></div>","49","","","","","","","","","","","","","","","","","","","","","","",""
"","html-keyboard-response","29","1378460","0.0-29.0","""event"",""trial"",""time""
""focus"",""0"",""0""
""blur"",""0"",""0""
""focus"",""0"",""0""
""fullscreenenter"",""0"",""3715""
""fullscreenexit"",""2"",""21457""
""blur"",""2"",""25225""
""focus"",""3"",""474684""
""blur"",""3"",""476884""
""focus"",""3"",""1274692""
","""event"",""trial"",""time""
""blur"",""0"",""0""
""blur"",""2"",""25225""
""blur"",""3"",""476884""
","""event"",""trial"",""time""
""focus"",""0"",""0""
""focus"",""0"",""0""
""focus"",""3"",""474684""
""focus"",""3"",""1274692""
","""event"",""trial"",""time""
""fullscreenenter"",""0"",""3715""
","""event"",""trial"",""time""
""fullscreenexit"",""2"",""21457""
","null","<div class='center'><p><img src='run_exp/static/images/tutorial/blue_win.png' height='500'></p></div>","null","","","","","","","","","","","","","","","","","","","","","","",""
"","instruc6","30","1383988","0.0-30.0","""event"",""trial"",""time""
""focus"",""0"",""0""
""blur"",""0"",""0""
""focus"",""0"",""0""
""fullscreenenter"",""0"",""3715""
""fullscreenexit"",""2"",""21457""
""blur"",""2"",""25225""
""focus"",""3"",""474684""
""blur"",""3"",""476884""
""focus"",""3"",""1274692""
","""event"",""trial"",""time""
""blur"",""0"",""0""
""blur"",""2"",""25225""
""blur"",""3"",""476884""
","""event"",""trial"",""time""
""focus"",""0"",""0""
""focus"",""0"",""0""
""focus"",""3"",""474684""
""focus"",""3"",""1274692""
","""event"",""trial"",""time""
""fullscreenenter"",""0"",""3715""
","""event"",""trial"",""time""
""fullscreenexit"",""2"",""21457""
","null","run_exp/static/audio/clip_6_blue_beard_outcome.m4a","null","","","","","<div class='center'><p> See, he succeeded in robbing the ships most of the time but not every time. </p></div>","","","","","","","","","","","","","","","","","",""
"","html-keyboard-response","31","1384591","0.0-31.0","""event"",""trial"",""time""
""focus"",""0"",""0""
""blur"",""0"",""0""
""focus"",""0"",""0""
""fullscreenenter"",""0"",""3715""
""fullscreenexit"",""2"",""21457""
""blur"",""2"",""25225""
""focus"",""3"",""474684""
""blur"",""3"",""476884""
""focus"",""3"",""1274692""
","""event"",""trial"",""time""
""blur"",""0"",""0""
""blur"",""2"",""25225""
""blur"",""3"",""476884""
","""event"",""trial"",""time""
""focus"",""0"",""0""
""focus"",""0"",""0""
""focus"",""3"",""474684""
""focus"",""3"",""1274692""
","""event"",""trial"",""time""
""fullscreenenter"",""0"",""3715""
","""event"",""trial"",""time""
""fullscreenexit"",""2"",""21457""
","602","<div class='center'><p> See, he succeeded in robbing the ships most of the time but not every time. </p><p><b>[Press the space bar to continue]</b></p></div>","32","","","","","","","","","","","","","","","","","","","","","","",""
"","audio-keyboard-response","32","1400287","0.0-32.0","""event"",""trial"",""time""
""focus"",""0"",""0""
""blur"",""0"",""0""
""focus"",""0"",""0""
""fullscreenenter"",""0"",""3715""
""fullscreenexit"",""2"",""21457""
""blur"",""2"",""25225""
""focus"",""3"",""474684""
""blur"",""3"",""476884""
""focus"",""3"",""1274692""
","""event"",""trial"",""time""
""blur"",""0"",""0""
""blur"",""2"",""25225""
""blur"",""3"",""476884""
","""event"",""trial"",""time""
""focus"",""0"",""0""
""focus"",""0"",""0""
""focus"",""3"",""474684""
""focus"",""3"",""1274692""
","""event"",""trial"",""time""
""fullscreenenter"",""0"",""3715""
","""event"",""trial"",""time""
""fullscreenexit"",""2"",""21457""
","15694","run_exp/static/audio/clip_7_pick_pirate.m4a","51","","","","","","","","","","","","","","","","","","","","","","",""
"","audio-keyboard-response","33","1403503","0.0-33.0-0.0","""event"",""trial"",""time""
""focus"",""0"",""0""
""blur"",""0"",""0""
""focus"",""0"",""0""
""fullscreenenter"",""0"",""3715""
""fullscreenexit"",""2"",""21457""
""blur"",""2"",""25225""
""focus"",""3"",""474684""
""blur"",""3"",""476884""
""focus"",""3"",""1274692""
","""event"",""trial"",""time""
""blur"",""0"",""0""
""blur"",""2"",""25225""
""blur"",""3"",""476884""
","""event"",""trial"",""time""
""focus"",""0"",""0""
""focus"",""0"",""0""
""focus"",""3"",""474684""
""focus"",""3"",""1274692""
","""event"",""trial"",""time""
""fullscreenenter"",""0"",""3715""
","""event"",""trial"",""time""
""fullscreenexit"",""2"",""21457""
","3213","run_exp/static/audio/clip_8_chosen_pirate_win.m4a","32","","","","","","","","","","","","","","","","","","","","","","",""
"","audio-keyboard-response","34","1405647","0.0-33.0-1.0","""event"",""trial"",""time""
""focus"",""0"",""0""
""blur"",""0"",""0""
""focus"",""0"",""0""
""fullscreenenter"",""0"",""3715""
""fullscreenexit"",""2"",""21457""
""blur"",""2"",""25225""
""focus"",""3"",""474684""
""blur"",""3"",""476884""
""focus"",""3"",""1274692""
","""event"",""trial"",""time""
""blur"",""0"",""0""
""blur"",""2"",""25225""
""blur"",""3"",""476884""
","""event"",""trial"",""time""
""focus"",""0"",""0""
""focus"",""0"",""0""
""focus"",""3"",""474684""
""focus"",""3"",""1274692""
","""event"",""trial"",""time""
""fullscreenenter"",""0"",""3715""
","""event"",""trial"",""time""
""fullscreenexit"",""2"",""21457""
","2143","run_exp/static/audio/clip_9_pick_a_pirate_again.m4a","49","","","","","","","","","","","","","","","","","","","","","","",""
"","audio-keyboard-response","35","1406767","0.0-34.0-0.0","""event"",""trial"",""time""
""focus"",""0"",""0""
""blur"",""0"",""0""
""focus"",""0"",""0""
""fullscreenenter"",""0"",""3715""
""fullscreenexit"",""2"",""21457""
""blur"",""2"",""25225""
""focus"",""3"",""474684""
""blur"",""3"",""476884""
""focus"",""3"",""1274692""
","""event"",""trial"",""time""
""blur"",""0"",""0""
""blur"",""2"",""25225""
""blur"",""3"",""476884""
","""event"",""trial"",""time""
""focus"",""0"",""0""
""focus"",""0"",""0""
""focus"",""3"",""474684""
""focus"",""3"",""1274692""
","""event"",""trial"",""time""
""fullscreenenter"",""0"",""3715""
","""event"",""trial"",""time""
""fullscreenexit"",""2"",""21457""
","1117","run_exp/static/audio/clip_10_chosen_pirate_loss.m4a","32","","","","","","","","","","","","","","","","","","","","","","",""
"","instruc9","36","1412316","0.0-35.0-0.0","""event"",""trial"",""time""
""focus"",""0"",""0""
""blur"",""0"",""0""
""focus"",""0"",""0""
""fullscreenenter"",""0"",""3715""
""fullscreenexit"",""2"",""21457""
""blur"",""2"",""25225""
""focus"",""3"",""474684""
""blur"",""3"",""476884""
""focus"",""3"",""1274692""
","""event"",""trial"",""time""
""blur"",""0"",""0""
""blur"",""2"",""25225""
""blur"",""3"",""476884""
","""event"",""trial"",""time""
""focus"",""0"",""0""
""focus"",""0"",""0""
""focus"",""3"",""474684""
""focus"",""3"",""1274692""
","""event"",""trial"",""time""
""fullscreenenter"",""0"",""3715""
","""event"",""trial"",""time""
""fullscreenexit"",""2"",""21457""
","null","run_exp/static/audio/clip_11_time_out.m4a","null","","","","","<div class='center'><p>If you don’t make your choice fast enough, you’ll have to wait a few seconds before you can make another one. </p><p><img src='run_exp/static/images/miscellaneous/hurry_up.png' height='500'></p></div>","","","","","","","","","","","","","","","","","",""
"","html-keyboard-response","37","1413295","0.0-35.0-1.0","""event"",""trial"",""time""
""focus"",""0"",""0""
""blur"",""0"",""0""
""focus"",""0"",""0""
""fullscreenenter"",""0"",""3715""
""fullscreenexit"",""2"",""21457""
""blur"",""2"",""25225""
""focus"",""3"",""474684""
""blur"",""3"",""476884""
""focus"",""3"",""1274692""
","""event"",""trial"",""time""
""blur"",""0"",""0""
""blur"",""2"",""25225""
""blur"",""3"",""476884""
","""event"",""trial"",""time""
""focus"",""0"",""0""
""focus"",""0"",""0""
""focus"",""3"",""474684""
""focus"",""3"",""1274692""
","""event"",""trial"",""time""
""fullscreenenter"",""0"",""3715""
","""event"",""trial"",""time""
""fullscreenexit"",""2"",""21457""
","978","<div class='center'><p>If you don’t make your choice fast enough, you’ll have to wait a few seconds before you can make another one. </p><p><img src='run_exp/static/images/miscellaneous/hurry_up.png' height='500'></p><p><b>[Press the space bar to continue]</b></p></div>","32","","","","","","","","","","","","","","","","","","","","","","",""
"","instruc10","38","1452456","0.0-35.0-2.0","""event"",""trial"",""time""
""focus"",""0"",""0""
""blur"",""0"",""0""
""focus"",""0"",""0""
""fullscreenenter"",""0"",""3715""
""fullscreenexit"",""2"",""21457""
""blur"",""2"",""25225""
""focus"",""3"",""474684""
""blur"",""3"",""476884""
""focus"",""3"",""1274692""
","""event"",""trial"",""time""
""blur"",""0"",""0""
""blur"",""2"",""25225""
""blur"",""3"",""476884""
","""event"",""trial"",""time""
""focus"",""0"",""0""
""focus"",""0"",""0""
""focus"",""3"",""474684""
""focus"",""3"",""1274692""
","""event"",""trial"",""time""
""fullscreenenter"",""0"",""3715""
","""event"",""trial"",""time""
""fullscreenexit"",""2"",""21457""
","null","run_exp/static/audio/clip_12_probe.m4a","null","","","","","<div class='center'><p>Once you've chosen a pirate, you’ll be shown the ship they are robbing. You will never rob the same ship twice. Ships can be told apart from one another by the image on them. These are the goods that they sell. See, this ship has a travel mug on it. </p><p> You’ll have to remember which island you saw each ship on. You will win more gold coins and hence more bonus money if you remember correctly! To help you remember, you can imagine a story. For example, here, you could imagine a mug full of water in the desert. Or, as another example, if on the forest island, your pirate robbed a ship with an apple on it, you could imagine an apple falling from a tree in the forest. </p><p><img src='run_exp/static/images/tutorial/example_probe.png' height='500'></p></div>","","","","","","","","","","","","","","","","","",""
"","html-keyboard-response","39","1453311","0.0-35.0-3.0","""event"",""trial"",""time""
""focus"",""0"",""0""
""blur"",""0"",""0""
""focus"",""0"",""0""
""fullscreenenter"",""0"",""3715""
""fullscreenexit"",""2"",""21457""
""blur"",""2"",""25225""
""focus"",""3"",""474684""
""blur"",""3"",""476884""
""focus"",""3"",""1274692""
""blur"",""40"",""1456056""
","""event"",""trial"",""time""
""blur"",""0"",""0""
""blur"",""2"",""25225""
""blur"",""3"",""476884""
""blur"",""40"",""1456056""
","""event"",""trial"",""time""
""focus"",""0"",""0""
""focus"",""0"",""0""
""focus"",""3"",""474684""
""focus"",""3"",""1274692""
","""event"",""trial"",""time""
""fullscreenenter"",""0"",""3715""
","""event"",""trial"",""time""
""fullscreenexit"",""2"",""21457""
","853","<div class='center'><p>Once you've chosen a pirate, you’ll be shown the ship they are robbing. You will never rob the same ship twice. Ships can be told apart from one another by the image on them. These are the goods that they sell. See, this ship has a travel mug on it. </p><p> You’ll have to remember which island you saw each ship on. You will win more gold coins and hence more bonus money if you remember correctly! To help you remember, you can imagine a story. For example, here, you could imagine a mug full of water in the desert. Or, as another example, if on the forest island, your pirate robbed a ship with an apple on it, you could imagine an apple falling from a tree in the forest. </p><p><img src='run_exp/static/images/tutorial/example_probe.png' height='500'></p><p><b>[Press the space bar to continue]</b></p></div>","32","","","","","","","","","","","","","","","","","","","","","","",""
"","instruc11","40","1469782","0.0-35.0-4.0","""event"",""trial"",""time""
""focus"",""0"",""0""
""blur"",""0"",""0""
""focus"",""0"",""0""
""fullscreenenter"",""0"",""3715""
""fullscreenexit"",""2"",""21457""
""blur"",""2"",""25225""
""focus"",""3"",""474684""
""blur"",""3"",""476884""
""focus"",""3"",""1274692""
""blur"",""40"",""1456056""
""focus"",""41"",""1470641""
","""event"",""trial"",""time""
""blur"",""0"",""0""
""blur"",""2"",""25225""
""blur"",""3"",""476884""
""blur"",""40"",""1456056""
","""event"",""trial"",""time""
""focus"",""0"",""0""
""focus"",""0"",""0""
""focus"",""3"",""474684""
""focus"",""3"",""1274692""
""focus"",""41"",""1470641""
","""event"",""trial"",""time""
""fullscreenenter"",""0"",""3715""
","""event"",""trial"",""time""
""fullscreenexit"",""2"",""21457""
","null","run_exp/static/audio/clip_13_changepoint.m4a","null","","","","","<div class='center'><p>How successful a pirate is at robbing ships will depend on the island you’re on.</p><p> A pirate may have visited this island many times before and gained a lot of practice robbing ships there.</p><p>So, they’re more likely to be successful than a pirate who has never visited the island before.</p></div>","","","","","","","","","","","","","","","","","",""
"","html-keyboard-response","41","1471517","0.0-35.0-5.0","""event"",""trial"",""time""
""focus"",""0"",""0""
""blur"",""0"",""0""
""focus"",""0"",""0""
""fullscreenenter"",""0"",""3715""
""fullscreenexit"",""2"",""21457""
""blur"",""2"",""25225""
""focus"",""3"",""474684""
""blur"",""3"",""476884""
""focus"",""3"",""1274692""
""blur"",""40"",""1456056""
""focus"",""41"",""1470641""
""blur"",""42"",""1502360""
""focus"",""42"",""1511137""
","""event"",""trial"",""time""
""blur"",""0"",""0""
""blur"",""2"",""25225""
""blur"",""3"",""476884""
""blur"",""40"",""1456056""
""blur"",""42"",""1502360""
","""event"",""trial"",""time""
""focus"",""0"",""0""
""focus"",""0"",""0""
""focus"",""3"",""474684""
""focus"",""3"",""1274692""
""focus"",""41"",""1470641""
""focus"",""42"",""1511137""
","""event"",""trial"",""time""
""fullscreenenter"",""0"",""3715""
","""event"",""trial"",""time""
""fullscreenexit"",""2"",""21457""
","1734","<div class='center'><p>How successful a pirate is at robbing ships will depend on the island you’re on.</p><p> A pirate may have visited this island many times before and gained a lot of practice robbing ships there.</p><p>So, they’re more likely to be successful than a pirate who has never visited the island before.</p><p><b>[Press the space bar to continue]</b></p></div>","32","","","","","","","","","","","","","","","","","","","","","","",""
"","instruc12","42","1512656","0.0-35.0-6.0","""event"",""trial"",""time""
""focus"",""0"",""0""
""blur"",""0"",""0""
""focus"",""0"",""0""
""fullscreenenter"",""0"",""3715""
""fullscreenexit"",""2"",""21457""
""blur"",""2"",""25225""
""focus"",""3"",""474684""
""blur"",""3"",""476884""
""focus"",""3"",""1274692""
""blur"",""40"",""1456056""
""focus"",""41"",""1470641""
""blur"",""42"",""1502360""
""focus"",""42"",""1511137""
","""event"",""trial"",""time""
""blur"",""0"",""0""
""blur"",""2"",""25225""
""blur"",""3"",""476884""
""blur"",""40"",""1456056""
""blur"",""42"",""1502360""
","""event"",""trial"",""time""
""focus"",""0"",""0""
""focus"",""0"",""0""
""focus"",""3"",""474684""
""focus"",""3"",""1274692""
""focus"",""41"",""1470641""
""focus"",""42"",""1511137""
","""event"",""trial"",""time""
""fullscreenenter"",""0"",""3715""
","""event"",""trial"",""time""
""fullscreenexit"",""2"",""21457""
","null","run_exp/static/audio/clip_14_drift.m4a","null","","","","","<div class='center'><p>How successful a pirate is at robbing ships can also change over the time spent on the island. </p><p> Ships may hear from islanders about the pirates coming and will improve their protections against the attack. This may make it harder to rob them.</p><p> Ships may also become lazy and weaken the strength of their protections. This may make it easier to rob them.</p><br><p>Things are always changing on the high seas! So, try your best to pay attention!</p><p><img src='run_exp/static/images/tutorial/contingency.png' height='500'></p></div>","","","","","","","","","","","","","","","","","",""
"","html-keyboard-response","43","1513278","0.0-35.0-7.0","""event"",""trial"",""time""
""focus"",""0"",""0""
""blur"",""0"",""0""
""focus"",""0"",""0""
""fullscreenenter"",""0"",""3715""
""fullscreenexit"",""2"",""21457""
""blur"",""2"",""25225""
""focus"",""3"",""474684""
""blur"",""3"",""476884""
""focus"",""3"",""1274692""
""blur"",""40"",""1456056""
""focus"",""41"",""1470641""
""blur"",""42"",""1502360""
""focus"",""42"",""1511137""
""blur"",""44"",""1538903""
""focus"",""44"",""1546239""
","""event"",""trial"",""time""
""blur"",""0"",""0""
""blur"",""2"",""25225""
""blur"",""3"",""476884""
""blur"",""40"",""1456056""
""blur"",""42"",""1502360""
""blur"",""44"",""1538903""
","""event"",""trial"",""time""
""focus"",""0"",""0""
""focus"",""0"",""0""
""focus"",""3"",""474684""
""focus"",""3"",""1274692""
""focus"",""41"",""1470641""
""focus"",""42"",""1511137""
""focus"",""44"",""1546239""
","""event"",""trial"",""time""
""fullscreenenter"",""0"",""3715""
","""event"",""trial"",""time""
""fullscreenexit"",""2"",""21457""
","621","<div class='center'><p>How successful a pirate is at robbing ships can also change over the time spent on the island. </p><p> Ships may hear from islanders about the pirates coming and will improve their protections against the attack. This may make it harder to rob them.</p><p> Ships may also become lazy and weaken the strength of their protections. This may make it easier to rob them.</p><br><p>Things are always changing on the high seas! So, try your best to pay attention!</p><p><img src='run_exp/static/images/tutorial/contingency.png' height='500'></p><p><b>[Press the space bar to continue]</b></p></div>","32","","","","","","","","","","","","","","","","","","","","","","",""
"","instruc13","44","1548525","0.0-35.0-8.0","""event"",""trial"",""time""
""focus"",""0"",""0""
""blur"",""0"",""0""
""focus"",""0"",""0""
""fullscreenenter"",""0"",""3715""
""fullscreenexit"",""2"",""21457""
""blur"",""2"",""25225""
""focus"",""3"",""474684""
""blur"",""3"",""476884""
""focus"",""3"",""1274692""
""blur"",""40"",""1456056""
""focus"",""41"",""1470641""
""blur"",""42"",""1502360""
""focus"",""42"",""1511137""
""blur"",""44"",""1538903""
""focus"",""44"",""1546239""
","""event"",""trial"",""time""
""blur"",""0"",""0""
""blur"",""2"",""25225""
""blur"",""3"",""476884""
""blur"",""40"",""1456056""
""blur"",""42"",""1502360""
""blur"",""44"",""1538903""
","""event"",""trial"",""time""
""focus"",""0"",""0""
""focus"",""0"",""0""
""focus"",""3"",""474684""
""focus"",""3"",""1274692""
""focus"",""41"",""1470641""
""focus"",""42"",""1511137""
""focus"",""44"",""1546239""
","""event"",""trial"",""time""
""fullscreenenter"",""0"",""3715""
","""event"",""trial"",""time""
""fullscreenexit"",""2"",""21457""
","null","run_exp/static/audio/clip_15_summary.m4a","null","","","","","<div class='center'><p>Let's go over the instructions quickly again. You have two important things to do: </p><b><p> 1. Pick the pirate who is the best at robbing ships on the current island. </p></b><b><p> 2. Remember on which island a ship was robbed.</p> </b><p>The amount of bonus money you can win depends on both.</p><p><br><p>Let’s try a practice game. The game will start by showing you the pirates. First, pick a pirate using the <b> 1, 2, 3 </b> keys on your keyboard. When you are shown a ship, try to remember which island you’re on by making up a story.</p><p>This is just a practice game, so you’re not playing for money. </p><p> Good luck! This game will be very difficult but try your best!</p></div>","","","","","","","","","","","","","","","","","",""
"","html-keyboard-response","45","1549213","0.0-35.0-9.0","""event"",""trial"",""time""
""focus"",""0"",""0""
""blur"",""0"",""0""
""focus"",""0"",""0""
""fullscreenenter"",""0"",""3715""
""fullscreenexit"",""2"",""21457""
""blur"",""2"",""25225""
""focus"",""3"",""474684""
""blur"",""3"",""476884""
""focus"",""3"",""1274692""
""blur"",""40"",""1456056""
""focus"",""41"",""1470641""
""blur"",""42"",""1502360""
""focus"",""42"",""1511137""
""blur"",""44"",""1538903""
""focus"",""44"",""1546239""
","""event"",""trial"",""time""
""blur"",""0"",""0""
""blur"",""2"",""25225""
""blur"",""3"",""476884""
""blur"",""40"",""1456056""
""blur"",""42"",""1502360""
""blur"",""44"",""1538903""
","""event"",""trial"",""time""
""focus"",""0"",""0""
""focus"",""0"",""0""
""focus"",""3"",""474684""
""focus"",""3"",""1274692""
""focus"",""41"",""1470641""
""focus"",""42"",""1511137""
""focus"",""44"",""1546239""
","""event"",""trial"",""time""
""fullscreenenter"",""0"",""3715""
","""event"",""trial"",""time""
""fullscreenexit"",""2"",""21457""
","687","<div class='center'><p>Let's go over the instructions quickly again. You have two important things to do: </p><b><p> 1. Pick the pirate who is the best at robbing ships on the current island. </p></b><b><p> 2. Remember on which island a ship was robbed.</p> </b><p>The amount of bonus money you can win depends on both.</p><p><br><p>Let’s try a practice game. The game will start by showing you the pirates. First, pick a pirate using the <b> 1, 2, 3 </b> keys on your keyboard. When you are shown a ship, try to remember which island you’re on by making up a story.</p><p>This is just a practice game, so you’re not playing for money. </p><p> Good luck! This game will be very difficult but try your best!</p><p><b>[Press the space bar to continue]</b></p></div>","32","","","","","","","","","","","","","","","","","","","","","","",""
"","do_welcome","46","1553252","0.0-35.0-10.0","""event"",""trial"",""time""
""focus"",""0"",""0""
""blur"",""0"",""0""
""focus"",""0"",""0""
""fullscreenenter"",""0"",""3715""
""fullscreenexit"",""2"",""21457""
""blur"",""2"",""25225""
""focus"",""3"",""474684""
""blur"",""3"",""476884""
""focus"",""3"",""1274692""
""blur"",""40"",""1456056""
""focus"",""41"",""1470641""
""blur"",""42"",""1502360""
""focus"",""42"",""1511137""
""blur"",""44"",""1538903""
""focus"",""44"",""1546239""
","""event"",""trial"",""time""
""blur"",""0"",""0""
""blur"",""2"",""25225""
""blur"",""3"",""476884""
""blur"",""40"",""1456056""
""blur"",""42"",""1502360""
""blur"",""44"",""1538903""
","""event"",""trial"",""time""
""focus"",""0"",""0""
""focus"",""0"",""0""
""focus"",""3"",""474684""
""focus"",""3"",""1274692""
""focus"",""41"",""1470641""
""focus"",""42"",""1511137""
""focus"",""44"",""1546239""
","""event"",""trial"",""time""
""fullscreenenter"",""0"",""3715""
","""event"",""trial"",""time""
""fullscreenexit"",""2"",""21457""
","null","","","","","","","","null","","","","","","","","","","","","","","","","",""
"","do_trial","47","1559261","0.0-35.0-11.0","""event"",""trial"",""time""
""focus"",""0"",""0""
""blur"",""0"",""0""
""focus"",""0"",""0""
""fullscreenenter"",""0"",""3715""
""fullscreenexit"",""2"",""21457""
""blur"",""2"",""25225""
""focus"",""3"",""474684""
""blur"",""3"",""476884""
""focus"",""3"",""1274692""
""blur"",""40"",""1456056""
""focus"",""41"",""1470641""
""blur"",""42"",""1502360""
""focus"",""42"",""1511137""
""blur"",""44"",""1538903""
""focus"",""44"",""1546239""
","""event"",""trial"",""time""
""blur"",""0"",""0""
""blur"",""2"",""25225""
""blur"",""3"",""476884""
""blur"",""40"",""1456056""
""blur"",""42"",""1502360""
""blur"",""44"",""1538903""
","""event"",""trial"",""time""
""focus"",""0"",""0""
""focus"",""0"",""0""
""focus"",""3"",""474684""
""focus"",""3"",""1274692""
""focus"",""41"",""1470641""
""focus"",""42"",""1511137""
""focus"",""44"",""1546239""
","""event"",""trial"",""time""
""fullscreenenter"",""0"",""3715""
","""event"",""trial"",""time""
""fullscreenexit"",""2"",""21457""
","null","","","","","","","","null","1,0,0","","","","","","","","","","","","","","","",""
"","html-keyboard-response","48","1560262","0.0-36.0-0.0","""event"",""trial"",""time""
""focus"",""0"",""0""
""blur"",""0"",""0""
""focus"",""0"",""0""
""fullscreenenter"",""0"",""3715""
""fullscreenexit"",""2"",""21457""
""blur"",""2"",""25225""
""focus"",""3"",""474684""
""blur"",""3"",""476884""
""focus"",""3"",""1274692""
""blur"",""40"",""1456056""
""focus"",""41"",""1470641""
""blur"",""42"",""1502360""
""focus"",""42"",""1511137""
""blur"",""44"",""1538903""
""focus"",""44"",""1546239""
","""event"",""trial"",""time""
""blur"",""0"",""0""
""blur"",""2"",""25225""
""blur"",""3"",""476884""
""blur"",""40"",""1456056""
""blur"",""42"",""1502360""
""blur"",""44"",""1538903""
","""event"",""trial"",""time""
""focus"",""0"",""0""
""focus"",""0"",""0""
""focus"",""3"",""474684""
""focus"",""3"",""1274692""
""focus"",""41"",""1470641""
""focus"",""42"",""1511137""
""focus"",""44"",""1546239""
","""event"",""trial"",""time""
""fullscreenenter"",""0"",""3715""
","""event"",""trial"",""time""
""fullscreenexit"",""2"",""21457""
","null","<p></p>","null","","","","","","","","","","","","","","","","","","","","","","",""
"","do_trial","49","1565315","0.0-36.0-1.0","""event"",""trial"",""time""
""focus"",""0"",""0""
""blur"",""0"",""0""
""focus"",""0"",""0""
""fullscreenenter"",""0"",""3715""
""fullscreenexit"",""2"",""21457""
""blur"",""2"",""25225""
""focus"",""3"",""474684""
""blur"",""3"",""476884""
""focus"",""3"",""1274692""
""blur"",""40"",""1456056""
""focus"",""41"",""1470641""
""blur"",""42"",""1502360""
""focus"",""42"",""1511137""
""blur"",""44"",""1538903""
""focus"",""44"",""1546239""
","""event"",""trial"",""time""
""blur"",""0"",""0""
""blur"",""2"",""25225""
""blur"",""3"",""476884""
""blur"",""40"",""1456056""
""blur"",""42"",""1502360""
""blur"",""44"",""1538903""
","""event"",""trial"",""time""
""focus"",""0"",""0""
""focus"",""0"",""0""
""focus"",""3"",""474684""
""focus"",""3"",""1274692""
""focus"",""41"",""1470641""
""focus"",""42"",""1511137""
""focus"",""44"",""1546239""
","""event"",""trial"",""time""
""fullscreenenter"",""0"",""3715""
","""event"",""trial"",""time""
""fullscreenexit"",""2"",""21457""
","546","","","","","","","","50","1,0,0","","","","","","","","","","","","","","","",""
"","html-keyboard-response","50","1566318","0.0-37.0-0.0","""event"",""trial"",""time""
""focus"",""0"",""0""
""blur"",""0"",""0""
""focus"",""0"",""0""
""fullscreenenter"",""0"",""3715""
""fullscreenexit"",""2"",""21457""
""blur"",""2"",""25225""
""focus"",""3"",""474684""
""blur"",""3"",""476884""
""focus"",""3"",""1274692""
""blur"",""40"",""1456056""
""focus"",""41"",""1470641""
""blur"",""42"",""1502360""
""focus"",""42"",""1511137""
""blur"",""44"",""1538903""
""focus"",""44"",""1546239""
","""event"",""trial"",""time""
""blur"",""0"",""0""
""blur"",""2"",""25225""
""blur"",""3"",""476884""
""blur"",""40"",""1456056""
""blur"",""42"",""1502360""
""blur"",""44"",""1538903""
","""event"",""trial"",""time""
""focus"",""0"",""0""
""focus"",""0"",""0""
""focus"",""3"",""474684""
""focus"",""3"",""1274692""
""focus"",""41"",""1470641""
""focus"",""42"",""1511137""
""focus"",""44"",""1546239""
","""event"",""trial"",""time""
""fullscreenenter"",""0"",""3715""
","""event"",""trial"",""time""
""fullscreenexit"",""2"",""21457""
","null","<p></p>","null","","","","","","","","","","","","","","","","","","","","","","",""
"","do_trial","51","1572146","0.0-37.0-1.0","""event"",""trial"",""time""
""focus"",""0"",""0""
""blur"",""0"",""0""
""focus"",""0"",""0""
""fullscreenenter"",""0"",""3715""
""fullscreenexit"",""2"",""21457""
""blur"",""2"",""25225""
""focus"",""3"",""474684""
""blur"",""3"",""476884""
""focus"",""3"",""1274692""
""blur"",""40"",""1456056""
""focus"",""41"",""1470641""
""blur"",""42"",""1502360""
""focus"",""42"",""1511137""
""blur"",""44"",""1538903""
""focus"",""44"",""1546239""
","""event"",""trial"",""time""
""blur"",""0"",""0""
""blur"",""2"",""25225""
""blur"",""3"",""476884""
""blur"",""40"",""1456056""
""blur"",""42"",""1502360""
""blur"",""44"",""1538903""
","""event"",""trial"",""time""
""focus"",""0"",""0""
""focus"",""0"",""0""
""focus"",""3"",""474684""
""focus"",""3"",""1274692""
""focus"",""41"",""1470641""
""focus"",""42"",""1511137""
""focus"",""44"",""1546239""
","""event"",""trial"",""time""
""fullscreenenter"",""0"",""3715""
","""event"",""trial"",""time""
""fullscreenexit"",""2"",""21457""
","1322","","","","","","","","49","1,1,0","","","","","","","","","","","","","","","",""
"","html-keyboard-response","52","1573148","0.0-38.0-0.0","""event"",""trial"",""time""
""focus"",""0"",""0""
""blur"",""0"",""0""
""focus"",""0"",""0""
""fullscreenenter"",""0"",""3715""
""fullscreenexit"",""2"",""21457""
""blur"",""2"",""25225""
""focus"",""3"",""474684""
""blur"",""3"",""476884""
""focus"",""3"",""1274692""
""blur"",""40"",""1456056""
""focus"",""41"",""1470641""
""blur"",""42"",""1502360""
""focus"",""42"",""1511137""
""blur"",""44"",""1538903""
""focus"",""44"",""1546239""
","""event"",""trial"",""time""
""blur"",""0"",""0""
""blur"",""2"",""25225""
""blur"",""3"",""476884""
""blur"",""40"",""1456056""
""blur"",""42"",""1502360""
""blur"",""44"",""1538903""
","""event"",""trial"",""time""
""focus"",""0"",""0""
""focus"",""0"",""0""
""focus"",""3"",""474684""
""focus"",""3"",""1274692""
""focus"",""41"",""1470641""
""focus"",""42"",""1511137""
""focus"",""44"",""1546239""
","""event"",""trial"",""time""
""fullscreenenter"",""0"",""3715""
","""event"",""trial"",""time""
""fullscreenexit"",""2"",""21457""
","null","<p></p>","null","","","","","","","","","","","","","","","","","","","","","","",""
"","do_trial","53","1578850","0.0-38.0-1.0","""event"",""trial"",""time""
""focus"",""0"",""0""
""blur"",""0"",""0""
""focus"",""0"",""0""
""fullscreenenter"",""0"",""3715""
""fullscreenexit"",""2"",""21457""
""blur"",""2"",""25225""
""focus"",""3"",""474684""
""blur"",""3"",""476884""
""focus"",""3"",""1274692""
""blur"",""40"",""1456056""
""focus"",""41"",""1470641""
""blur"",""42"",""1502360""
""focus"",""42"",""1511137""
""blur"",""44"",""1538903""
""focus"",""44"",""1546239""
","""event"",""trial"",""time""
""blur"",""0"",""0""
""blur"",""2"",""25225""
""blur"",""3"",""476884""
""blur"",""40"",""1456056""
""blur"",""42"",""1502360""
""blur"",""44"",""1538903""
","""event"",""trial"",""time""
""focus"",""0"",""0""
""focus"",""0"",""0""
""focus"",""3"",""474684""
""focus"",""3"",""1274692""
""focus"",""41"",""1470641""
""focus"",""42"",""1511137""
""focus"",""44"",""1546239""
","""event"",""trial"",""time""
""fullscreenenter"",""0"",""3715""
","""event"",""trial"",""time""
""fullscreenexit"",""2"",""21457""
","1196","","","","","","","","51","1,0,1","","","","","","","","","","","","","","","",""
"","html-keyboard-response","54","1579852","0.0-39.0-0.0","""event"",""trial"",""time""
""focus"",""0"",""0""
""blur"",""0"",""0""
""focus"",""0"",""0""
""fullscreenenter"",""0"",""3715""
""fullscreenexit"",""2"",""21457""
""blur"",""2"",""25225""
""focus"",""3"",""474684""
""blur"",""3"",""476884""
""focus"",""3"",""1274692""
""blur"",""40"",""1456056""
""focus"",""41"",""1470641""
""blur"",""42"",""1502360""
""focus"",""42"",""1511137""
""blur"",""44"",""1538903""
""focus"",""44"",""1546239""
","""event"",""trial"",""time""
""blur"",""0"",""0""
""blur"",""2"",""25225""
""blur"",""3"",""476884""
""blur"",""40"",""1456056""
""blur"",""42"",""1502360""
""blur"",""44"",""1538903""
","""event"",""trial"",""time""
""focus"",""0"",""0""
""focus"",""0"",""0""
""focus"",""3"",""474684""
""focus"",""3"",""1274692""
""focus"",""41"",""1470641""
""focus"",""42"",""1511137""
""focus"",""44"",""1546239""
","""event"",""trial"",""time""
""fullscreenenter"",""0"",""3715""
","""event"",""trial"",""time""
""fullscreenexit"",""2"",""21457""
","null","<p></p>","null","","","","","","","","","","","","","","","","","","","","","","",""
"","do_trial","55","1585826","0.0-39.0-1.0","""event"",""trial"",""time""
""focus"",""0"",""0""
""blur"",""0"",""0""
""focus"",""0"",""0""
""fullscreenenter"",""0"",""3715""
""fullscreenexit"",""2"",""21457""
""blur"",""2"",""25225""
""focus"",""3"",""474684""
""blur"",""3"",""476884""
""focus"",""3"",""1274692""
""blur"",""40"",""1456056""
""focus"",""41"",""1470641""
""blur"",""42"",""1502360""
""focus"",""42"",""1511137""
""blur"",""44"",""1538903""
""focus"",""44"",""1546239""
","""event"",""trial"",""time""
""blur"",""0"",""0""
""blur"",""2"",""25225""
""blur"",""3"",""476884""
""blur"",""40"",""1456056""
""blur"",""42"",""1502360""
""blur"",""44"",""1538903""
","""event"",""trial"",""time""
""focus"",""0"",""0""
""focus"",""0"",""0""
""focus"",""3"",""474684""
""focus"",""3"",""1274692""
""focus"",""41"",""1470641""
""focus"",""42"",""1511137""
""focus"",""44"",""1546239""
","""event"",""trial"",""time""
""fullscreenenter"",""0"",""3715""
","""event"",""trial"",""time""
""fullscreenexit"",""2"",""21457""
","1468","","","","","","","","50","0,1,0","","","","","","","","","","","","","","","",""
"","html-keyboard-response","56","1586827","0.0-40.0-0.0","""event"",""trial"",""time""
""focus"",""0"",""0""
""blur"",""0"",""0""
""focus"",""0"",""0""
""fullscreenenter"",""0"",""3715""
""fullscreenexit"",""2"",""21457""
""blur"",""2"",""25225""
""focus"",""3"",""474684""
""blur"",""3"",""476884""
""focus"",""3"",""1274692""
""blur"",""40"",""1456056""
""focus"",""41"",""1470641""
""blur"",""42"",""1502360""
""focus"",""42"",""1511137""
""blur"",""44"",""1538903""
""focus"",""44"",""1546239""
","""event"",""trial"",""time""
""blur"",""0"",""0""
""blur"",""2"",""25225""
""blur"",""3"",""476884""
""blur"",""40"",""1456056""
""blur"",""42"",""1502360""
""blur"",""44"",""1538903""
","""event"",""trial"",""time""
""focus"",""0"",""0""
""focus"",""0"",""0""
""focus"",""3"",""474684""
""focus"",""3"",""1274692""
""focus"",""41"",""1470641""
""focus"",""42"",""1511137""
""focus"",""44"",""1546239""
","""event"",""trial"",""time""
""fullscreenenter"",""0"",""3715""
","""event"",""trial"",""time""
""fullscreenexit"",""2"",""21457""
","null","<p></p>","null","","","","","","","","","","","","","","","","","","","","","","",""
"","do_trial","57","1592258","0.0-40.0-1.0","""event"",""trial"",""time""
""focus"",""0"",""0""
""blur"",""0"",""0""
""focus"",""0"",""0""
""fullscreenenter"",""0"",""3715""
""fullscreenexit"",""2"",""21457""
""blur"",""2"",""25225""
""focus"",""3"",""474684""
""blur"",""3"",""476884""
""focus"",""3"",""1274692""
""blur"",""40"",""1456056""
""focus"",""41"",""1470641""
""blur"",""42"",""1502360""
""focus"",""42"",""1511137""
""blur"",""44"",""1538903""
""focus"",""44"",""1546239""
","""event"",""trial"",""time""
""blur"",""0"",""0""
""blur"",""2"",""25225""
""blur"",""3"",""476884""
""blur"",""40"",""1456056""
""blur"",""42"",""1502360""
""blur"",""44"",""1538903""
","""event"",""trial"",""time""
""focus"",""0"",""0""
""focus"",""0"",""0""
""focus"",""3"",""474684""
""focus"",""3"",""1274692""
""focus"",""41"",""1470641""
""focus"",""42"",""1511137""
""focus"",""44"",""1546239""
","""event"",""trial"",""time""
""fullscreenenter"",""0"",""3715""
","""event"",""trial"",""time""
""fullscreenexit"",""2"",""21457""
","926","","","","","","","","51","1,0,0","","","","","","","","","","","","","","","",""
"","do_bye","58","1593763","0.0-41.0-0.0","""event"",""trial"",""time""
""focus"",""0"",""0""
""blur"",""0"",""0""
""focus"",""0"",""0""
""fullscreenenter"",""0"",""3715""
""fullscreenexit"",""2"",""21457""
""blur"",""2"",""25225""
""focus"",""3"",""474684""
""blur"",""3"",""476884""
""focus"",""3"",""1274692""
""blur"",""40"",""1456056""
""focus"",""41"",""1470641""
""blur"",""42"",""1502360""
""focus"",""42"",""1511137""
""blur"",""44"",""1538903""
""focus"",""44"",""1546239""
","""event"",""trial"",""time""
""blur"",""0"",""0""
""blur"",""2"",""25225""
""blur"",""3"",""476884""
""blur"",""40"",""1456056""
""blur"",""42"",""1502360""
""blur"",""44"",""1538903""
","""event"",""trial"",""time""
""focus"",""0"",""0""
""focus"",""0"",""0""
""focus"",""3"",""474684""
""focus"",""3"",""1274692""
""focus"",""41"",""1470641""
""focus"",""42"",""1511137""
""focus"",""44"",""1546239""
","""event"",""trial"",""time""
""fullscreenenter"",""0"",""3715""
","""event"",""trial"",""time""
""fullscreenexit"",""2"",""21457""
","null","","","","","","","","null","","","","","","","","","","","","","","","","",""
"","do_travel","59","1602777","0.0-41.0-1.0","""event"",""trial"",""time""
""focus"",""0"",""0""
""blur"",""0"",""0""
""focus"",""0"",""0""
""fullscreenenter"",""0"",""3715""
""fullscreenexit"",""2"",""21457""
""blur"",""2"",""25225""
""focus"",""3"",""474684""
""blur"",""3"",""476884""
""focus"",""3"",""1274692""
""blur"",""40"",""1456056""
""focus"",""41"",""1470641""
""blur"",""42"",""1502360""
""focus"",""42"",""1511137""
""blur"",""44"",""1538903""
""focus"",""44"",""1546239""
","""event"",""trial"",""time""
""blur"",""0"",""0""
""blur"",""2"",""25225""
""blur"",""3"",""476884""
""blur"",""40"",""1456056""
""blur"",""42"",""1502360""
""blur"",""44"",""1538903""
","""event"",""trial"",""time""
""focus"",""0"",""0""
""focus"",""0"",""0""
""focus"",""3"",""474684""
""focus"",""3"",""1274692""
""focus"",""41"",""1470641""
""focus"",""42"",""1511137""
""focus"",""44"",""1546239""
","""event"",""trial"",""time""
""fullscreenenter"",""0"",""3715""
","""event"",""trial"",""time""
""fullscreenexit"",""2"",""21457""
","null","","","","","","","","null","","","","","","","","","","","","","","","","",""
"","do_welcome","60","1606791","0.0-41.0-2.0","""event"",""trial"",""time""
""focus"",""0"",""0""
""blur"",""0"",""0""
""focus"",""0"",""0""
""fullscreenenter"",""0"",""3715""
""fullscreenexit"",""2"",""21457""
""blur"",""2"",""25225""
""focus"",""3"",""474684""
""blur"",""3"",""476884""
""focus"",""3"",""1274692""
""blur"",""40"",""1456056""
""focus"",""41"",""1470641""
""blur"",""42"",""1502360""
""focus"",""42"",""1511137""
""blur"",""44"",""1538903""
""focus"",""44"",""1546239""
","""event"",""trial"",""time""
""blur"",""0"",""0""
""blur"",""2"",""25225""
""blur"",""3"",""476884""
""blur"",""40"",""1456056""
""blur"",""42"",""1502360""
""blur"",""44"",""1538903""
","""event"",""trial"",""time""
""focus"",""0"",""0""
""focus"",""0"",""0""
""focus"",""3"",""474684""
""focus"",""3"",""1274692""
""focus"",""41"",""1470641""
""focus"",""42"",""1511137""
""focus"",""44"",""1546239""
","""event"",""trial"",""time""
""fullscreenenter"",""0"",""3715""
","""event"",""trial"",""time""
""fullscreenexit"",""2"",""21457""
","null","","","","","","","","null","","","","","","","","","","","","","","","","",""
"","do_trial","61","1612224","0.0-41.0-3.0","""event"",""trial"",""time""
""focus"",""0"",""0""
""blur"",""0"",""0""
""focus"",""0"",""0""
""fullscreenenter"",""0"",""3715""
""fullscreenexit"",""2"",""21457""
""blur"",""2"",""25225""
""focus"",""3"",""474684""
""blur"",""3"",""476884""
""focus"",""3"",""1274692""
""blur"",""40"",""1456056""
""focus"",""41"",""1470641""
""blur"",""42"",""1502360""
""focus"",""42"",""1511137""
""blur"",""44"",""1538903""
""focus"",""44"",""1546239""
","""event"",""trial"",""time""
""blur"",""0"",""0""
""blur"",""2"",""25225""
""blur"",""3"",""476884""
""blur"",""40"",""1456056""
""blur"",""42"",""1502360""
""blur"",""44"",""1538903""
","""event"",""trial"",""time""
""focus"",""0"",""0""
""focus"",""0"",""0""
""focus"",""3"",""474684""
""focus"",""3"",""1274692""
""focus"",""41"",""1470641""
""focus"",""42"",""1511137""
""focus"",""44"",""1546239""
","""event"",""trial"",""time""
""fullscreenenter"",""0"",""3715""
","""event"",""trial"",""time""
""fullscreenexit"",""2"",""21457""
","929","","","","","","","","49","1,0,0","","","","","","","","","","","","","","","",""
"","html-keyboard-response","62","1613226","0.0-42.0-0.0","""event"",""trial"",""time""
""focus"",""0"",""0""
""blur"",""0"",""0""
""focus"",""0"",""0""
""fullscreenenter"",""0"",""3715""
""fullscreenexit"",""2"",""21457""
""blur"",""2"",""25225""
""focus"",""3"",""474684""
""blur"",""3"",""476884""
""focus"",""3"",""1274692""
""blur"",""40"",""1456056""
""focus"",""41"",""1470641""
""blur"",""42"",""1502360""
""focus"",""42"",""1511137""
""blur"",""44"",""1538903""
""focus"",""44"",""1546239""
","""event"",""trial"",""time""
""blur"",""0"",""0""
""blur"",""2"",""25225""
""blur"",""3"",""476884""
""blur"",""40"",""1456056""
""blur"",""42"",""1502360""
""blur"",""44"",""1538903""
","""event"",""trial"",""time""
""focus"",""0"",""0""
""focus"",""0"",""0""
""focus"",""3"",""474684""
""focus"",""3"",""1274692""
""focus"",""41"",""1470641""
""focus"",""42"",""1511137""
""focus"",""44"",""1546239""
","""event"",""trial"",""time""
""fullscreenenter"",""0"",""3715""
","""event"",""trial"",""time""
""fullscreenexit"",""2"",""21457""
","null","<p></p>","null","","","","","","","","","","","","","","","","","","","","","","",""
"","do_trial","63","1618225","0.0-42.0-1.0","""event"",""trial"",""time""
""focus"",""0"",""0""
""blur"",""0"",""0""
""focus"",""0"",""0""
""fullscreenenter"",""0"",""3715""
""fullscreenexit"",""2"",""21457""
""blur"",""2"",""25225""
""focus"",""3"",""474684""
""blur"",""3"",""476884""
""focus"",""3"",""1274692""
""blur"",""40"",""1456056""
""focus"",""41"",""1470641""
""blur"",""42"",""1502360""
""focus"",""42"",""1511137""
""blur"",""44"",""1538903""
""focus"",""44"",""1546239""
","""event"",""trial"",""time""
""blur"",""0"",""0""
""blur"",""2"",""25225""
""blur"",""3"",""476884""
""blur"",""40"",""1456056""
""blur"",""42"",""1502360""
""blur"",""44"",""1538903""
","""event"",""trial"",""time""
""focus"",""0"",""0""
""focus"",""0"",""0""
""focus"",""3"",""474684""
""focus"",""3"",""1274692""
""focus"",""41"",""1470641""
""focus"",""42"",""1511137""
""focus"",""44"",""1546239""
","""event"",""trial"",""time""
""fullscreenenter"",""0"",""3715""
","""event"",""trial"",""time""
""fullscreenexit"",""2"",""21457""
","494","","","","","","","","50","1,0,1","","","","","","","","","","","","","","","",""
"","html-keyboard-response","64","1619226","0.0-43.0-0.0","""event"",""trial"",""time""
""focus"",""0"",""0""
""blur"",""0"",""0""
""focus"",""0"",""0""
""fullscreenenter"",""0"",""3715""
""fullscreenexit"",""2"",""21457""
""blur"",""2"",""25225""
""focus"",""3"",""474684""
""blur"",""3"",""476884""
""focus"",""3"",""1274692""
""blur"",""40"",""1456056""
""focus"",""41"",""1470641""
""blur"",""42"",""1502360""
""focus"",""42"",""1511137""
""blur"",""44"",""1538903""
""focus"",""44"",""1546239""
","""event"",""trial"",""time""
""blur"",""0"",""0""
""blur"",""2"",""25225""
""blur"",""3"",""476884""
""blur"",""40"",""1456056""
""blur"",""42"",""1502360""
""blur"",""44"",""1538903""
","""event"",""trial"",""time""
""focus"",""0"",""0""
""focus"",""0"",""0""
""focus"",""3"",""474684""
""focus"",""3"",""1274692""
""focus"",""41"",""1470641""
""focus"",""42"",""1511137""
""focus"",""44"",""1546239""
","""event"",""trial"",""time""
""fullscreenenter"",""0"",""3715""
","""event"",""trial"",""time""
""fullscreenexit"",""2"",""21457""
","null","<p></p>","null","","","","","","","","","","","","","","","","","","","","","","",""
"","do_trial","65","1625265","0.0-43.0-1.0","""event"",""trial"",""time""
""focus"",""0"",""0""
""blur"",""0"",""0""
""focus"",""0"",""0""
""fullscreenenter"",""0"",""3715""
""fullscreenexit"",""2"",""21457""
""blur"",""2"",""25225""
""focus"",""3"",""474684""
""blur"",""3"",""476884""
""focus"",""3"",""1274692""
""blur"",""40"",""1456056""
""focus"",""41"",""1470641""
""blur"",""42"",""1502360""
""focus"",""42"",""1511137""
""blur"",""44"",""1538903""
""focus"",""44"",""1546239""
","""event"",""trial"",""time""
""blur"",""0"",""0""
""blur"",""2"",""25225""
""blur"",""3"",""476884""
""blur"",""40"",""1456056""
""blur"",""42"",""1502360""
""blur"",""44"",""1538903""
","""event"",""trial"",""time""
""focus"",""0"",""0""
""focus"",""0"",""0""
""focus"",""3"",""474684""
""focus"",""3"",""1274692""
""focus"",""41"",""1470641""
""focus"",""42"",""1511137""
""focus"",""44"",""1546239""
","""event"",""trial"",""time""
""fullscreenenter"",""0"",""3715""
","""event"",""trial"",""time""
""fullscreenexit"",""2"",""21457""
","1535","","","","","","","","49","1,1,0","","","","","","","","","","","","","","","",""
"","html-keyboard-response","66","1626267","0.0-44.0-0.0","""event"",""trial"",""time""
""focus"",""0"",""0""
""blur"",""0"",""0""
""focus"",""0"",""0""
""fullscreenenter"",""0"",""3715""
""fullscreenexit"",""2"",""21457""
""blur"",""2"",""25225""
""focus"",""3"",""474684""
""blur"",""3"",""476884""
""focus"",""3"",""1274692""
""blur"",""40"",""1456056""
""focus"",""41"",""1470641""
""blur"",""42"",""1502360""
""focus"",""42"",""1511137""
""blur"",""44"",""1538903""
""focus"",""44"",""1546239""
","""event"",""trial"",""time""
""blur"",""0"",""0""
""blur"",""2"",""25225""
""blur"",""3"",""476884""
""blur"",""40"",""1456056""
""blur"",""42"",""1502360""
""blur"",""44"",""1538903""
","""event"",""trial"",""time""
""focus"",""0"",""0""
""focus"",""0"",""0""
""focus"",""3"",""474684""
""focus"",""3"",""1274692""
""focus"",""41"",""1470641""
""focus"",""42"",""1511137""
""focus"",""44"",""1546239""
","""event"",""trial"",""time""
""fullscreenenter"",""0"",""3715""
","""event"",""trial"",""time""
""fullscreenexit"",""2"",""21457""
","null","<p></p>","null","","","","","","","","","","","","","","","","","","","","","","",""
"","do_trial","67","1632097","0.0-44.0-1.0","""event"",""trial"",""time""
""focus"",""0"",""0""
""blur"",""0"",""0""
""focus"",""0"",""0""
""fullscreenenter"",""0"",""3715""
""fullscreenexit"",""2"",""21457""
""blur"",""2"",""25225""
""focus"",""3"",""474684""
""blur"",""3"",""476884""
""focus"",""3"",""1274692""
""blur"",""40"",""1456056""
""focus"",""41"",""1470641""
""blur"",""42"",""1502360""
""focus"",""42"",""1511137""
""blur"",""44"",""1538903""
""focus"",""44"",""1546239""
","""event"",""trial"",""time""
""blur"",""0"",""0""
""blur"",""2"",""25225""
""blur"",""3"",""476884""
""blur"",""40"",""1456056""
""blur"",""42"",""1502360""
""blur"",""44"",""1538903""
","""event"",""trial"",""time""
""focus"",""0"",""0""
""focus"",""0"",""0""
""focus"",""3"",""474684""
""focus"",""3"",""1274692""
""focus"",""41"",""1470641""
""focus"",""42"",""1511137""
""focus"",""44"",""1546239""
","""event"",""trial"",""time""
""fullscreenenter"",""0"",""3715""
","""event"",""trial"",""time""
""fullscreenexit"",""2"",""21457""
","1326","","","","","","","","51","0,0,1","","","","","","","","","","","","","","","",""
"","html-keyboard-response","68","1633099","0.0-45.0-0.0","""event"",""trial"",""time""
""focus"",""0"",""0""
""blur"",""0"",""0""
""focus"",""0"",""0""
""fullscreenenter"",""0"",""3715""
""fullscreenexit"",""2"",""21457""
""blur"",""2"",""25225""
""focus"",""3"",""474684""
""blur"",""3"",""476884""
""focus"",""3"",""1274692""
""blur"",""40"",""1456056""
""focus"",""41"",""1470641""
""blur"",""42"",""1502360""
""focus"",""42"",""1511137""
""blur"",""44"",""1538903""
""focus"",""44"",""1546239""
","""event"",""trial"",""time""
""blur"",""0"",""0""
""blur"",""2"",""25225""
""blur"",""3"",""476884""
""blur"",""40"",""1456056""
""blur"",""42"",""1502360""
""blur"",""44"",""1538903""
","""event"",""trial"",""time""
""focus"",""0"",""0""
""focus"",""0"",""0""
""focus"",""3"",""474684""
""focus"",""3"",""1274692""
""focus"",""41"",""1470641""
""focus"",""42"",""1511137""
""focus"",""44"",""1546239""
","""event"",""trial"",""time""
""fullscreenenter"",""0"",""3715""
","""event"",""trial"",""time""
""fullscreenexit"",""2"",""21457""
","null","<p></p>","null","","","","","","","","","","","","","","","","","","","","","","",""
"","do_trial","69","1637713","0.0-45.0-1.0","""event"",""trial"",""time""
""focus"",""0"",""0""
""blur"",""0"",""0""
""focus"",""0"",""0""
""fullscreenenter"",""0"",""3715""
""fullscreenexit"",""2"",""21457""
""blur"",""2"",""25225""
""focus"",""3"",""474684""
""blur"",""3"",""476884""
""focus"",""3"",""1274692""
""blur"",""40"",""1456056""
""focus"",""41"",""1470641""
""blur"",""42"",""1502360""
""focus"",""42"",""1511137""
""blur"",""44"",""1538903""
""focus"",""44"",""1546239""
","""event"",""trial"",""time""
""blur"",""0"",""0""
""blur"",""2"",""25225""
""blur"",""3"",""476884""
""blur"",""40"",""1456056""
""blur"",""42"",""1502360""
""blur"",""44"",""1538903""
","""event"",""trial"",""time""
""focus"",""0"",""0""
""focus"",""0"",""0""
""focus"",""3"",""474684""
""focus"",""3"",""1274692""
""focus"",""41"",""1470641""
""focus"",""42"",""1511137""
""focus"",""44"",""1546239""
","""event"",""trial"",""time""
""fullscreenenter"",""0"",""3715""
","""event"",""trial"",""time""
""fullscreenexit"",""2"",""21457""
","110","","","","","","","","49","1,0,1","","","","","","","","","","","","","","","",""
"","html-keyboard-response","70","1640236","0.0-46.0-0.0","""event"",""trial"",""time""
""focus"",""0"",""0""
""blur"",""0"",""0""
""focus"",""0"",""0""
""fullscreenenter"",""0"",""3715""
""fullscreenexit"",""2"",""21457""
""blur"",""2"",""25225""
""focus"",""3"",""474684""
""blur"",""3"",""476884""
""focus"",""3"",""1274692""
""blur"",""40"",""1456056""
""focus"",""41"",""1470641""
""blur"",""42"",""1502360""
""focus"",""42"",""1511137""
""blur"",""44"",""1538903""
""focus"",""44"",""1546239""
","""event"",""trial"",""time""
""blur"",""0"",""0""
""blur"",""2"",""25225""
""blur"",""3"",""476884""
""blur"",""40"",""1456056""
""blur"",""42"",""1502360""
""blur"",""44"",""1538903""
","""event"",""trial"",""time""
""focus"",""0"",""0""
""focus"",""0"",""0""
""focus"",""3"",""474684""
""focus"",""3"",""1274692""
""focus"",""41"",""1470641""
""focus"",""42"",""1511137""
""focus"",""44"",""1546239""
","""event"",""trial"",""time""
""fullscreenenter"",""0"",""3715""
","""event"",""trial"",""time""
""fullscreenexit"",""2"",""21457""
","2520","<div class='center'><p><img src='run_exp/static/images/tutorial/prac_best_pirate.png'  height='500'></p></div>","49","","","","","","","","","","","","","","","","","","","","","","",""
"","html-keyboard-response","71","1641356","0.0-47.0-0.0","""event"",""trial"",""time""
""focus"",""0"",""0""
""blur"",""0"",""0""
""focus"",""0"",""0""
""fullscreenenter"",""0"",""3715""
""fullscreenexit"",""2"",""21457""
""blur"",""2"",""25225""
""focus"",""3"",""474684""
""blur"",""3"",""476884""
""focus"",""3"",""1274692""
""blur"",""40"",""1456056""
""focus"",""41"",""1470641""
""blur"",""42"",""1502360""
""focus"",""42"",""1511137""
""blur"",""44"",""1538903""
""focus"",""44"",""1546239""
","""event"",""trial"",""time""
""blur"",""0"",""0""
""blur"",""2"",""25225""
""blur"",""3"",""476884""
""blur"",""40"",""1456056""
""blur"",""42"",""1502360""
""blur"",""44"",""1538903""
","""event"",""trial"",""time""
""focus"",""0"",""0""
""focus"",""0"",""0""
""focus"",""3"",""474684""
""focus"",""3"",""1274692""
""focus"",""41"",""1470641""
""focus"",""42"",""1511137""
""focus"",""44"",""1546239""
","""event"",""trial"",""time""
""fullscreenenter"",""0"",""3715""
","""event"",""trial"",""time""
""fullscreenexit"",""2"",""21457""
","1120","<div class='center'><p>That's correct! Red beard was the best.</p><p><b>[Press the space bar to continue]</b></p></div>","32","","","","","","","","","","","","","","","","","","","","","","",""
"","html-keyboard-response","72","1649548","0.0-47.0-1.0","""event"",""trial"",""time""
""focus"",""0"",""0""
""blur"",""0"",""0""
""focus"",""0"",""0""
""fullscreenenter"",""0"",""3715""
""fullscreenexit"",""2"",""21457""
""blur"",""2"",""25225""
""focus"",""3"",""474684""
""blur"",""3"",""476884""
""focus"",""3"",""1274692""
""blur"",""40"",""1456056""
""focus"",""41"",""1470641""
""blur"",""42"",""1502360""
""focus"",""42"",""1511137""
""blur"",""44"",""1538903""
""focus"",""44"",""1546239""
","""event"",""trial"",""time""
""blur"",""0"",""0""
""blur"",""2"",""25225""
""blur"",""3"",""476884""
""blur"",""40"",""1456056""
""blur"",""42"",""1502360""
""blur"",""44"",""1538903""
","""event"",""trial"",""time""
""focus"",""0"",""0""
""focus"",""0"",""0""
""focus"",""3"",""474684""
""focus"",""3"",""1274692""
""focus"",""41"",""1470641""
""focus"",""42"",""1511137""
""focus"",""44"",""1546239""
","""event"",""trial"",""time""
""fullscreenenter"",""0"",""3715""
","""event"",""trial"",""time""
""fullscreenexit"",""2"",""21457""
","8191","<div class='center'><p><img src='run_exp/static/images/tutorial/prac_source.png'  height='500'></p></div>","50","","","","","","","","","","","","","","","","","","","","","","",""
"","html-keyboard-response","73","1650700","0.0-48.0-0.0","""event"",""trial"",""time""
""focus"",""0"",""0""
""blur"",""0"",""0""
""focus"",""0"",""0""
""fullscreenenter"",""0"",""3715""
""fullscreenexit"",""2"",""21457""
""blur"",""2"",""25225""
""focus"",""3"",""474684""
""blur"",""3"",""476884""
""focus"",""3"",""1274692""
""blur"",""40"",""1456056""
""focus"",""41"",""1470641""
""blur"",""42"",""1502360""
""focus"",""42"",""1511137""
""blur"",""44"",""1538903""
""focus"",""44"",""1546239""
","""event"",""trial"",""time""
""blur"",""0"",""0""
""blur"",""2"",""25225""
""blur"",""3"",""476884""
""blur"",""40"",""1456056""
""blur"",""42"",""1502360""
""blur"",""44"",""1538903""
","""event"",""trial"",""time""
""focus"",""0"",""0""
""focus"",""0"",""0""
""focus"",""3"",""474684""
""focus"",""3"",""1274692""
""focus"",""41"",""1470641""
""focus"",""42"",""1511137""
""focus"",""44"",""1546239""
","""event"",""trial"",""time""
""fullscreenenter"",""0"",""3715""
","""event"",""trial"",""time""
""fullscreenexit"",""2"",""21457""
","1151","<div class='center'><p>That's correct! You saw this ship on the cavern island.</p><p><b>[Press the space bar to continue]</b></p></div>","32","","","","","","","","","","","","","","","","","","","","","","",""
"","quiz_beginning","74","1661964","0.0-48.0-1.0","""event"",""trial"",""time""
""focus"",""0"",""0""
""blur"",""0"",""0""
""focus"",""0"",""0""
""fullscreenenter"",""0"",""3715""
""fullscreenexit"",""2"",""21457""
""blur"",""2"",""25225""
""focus"",""3"",""474684""
""blur"",""3"",""476884""
""focus"",""3"",""1274692""
""blur"",""40"",""1456056""
""focus"",""41"",""1470641""
""blur"",""42"",""1502360""
""focus"",""42"",""1511137""
""blur"",""44"",""1538903""
""focus"",""44"",""1546239""
","""event"",""trial"",""time""
""blur"",""0"",""0""
""blur"",""2"",""25225""
""blur"",""3"",""476884""
""blur"",""40"",""1456056""
""blur"",""42"",""1502360""
""blur"",""44"",""1538903""
","""event"",""trial"",""time""
""focus"",""0"",""0""
""focus"",""0"",""0""
""focus"",""3"",""474684""
""focus"",""3"",""1274692""
""focus"",""41"",""1470641""
""focus"",""42"",""1511137""
""focus"",""44"",""1546239""
","""event"",""trial"",""time""
""fullscreenenter"",""0"",""3715""
","""event"",""trial"",""time""
""fullscreenexit"",""2"",""21457""
","null","run_exp/static/audio/clip_16_quiz_intro.m4a","null","","","","","<div class='center'><p>Good job on the practice game! Now, you will be asked some true or false questions to make sure you really understand the rules of the game.</p><p> Press <b>'1'</b> on the keyboard for true and press <b>'2'</b> for false.</p></div>","","","","","","","","","","","","","","","","","",""
"","audio-keyboard-response","75","1668525","0.0-48.0-2.0","""event"",""trial"",""time""
""focus"",""0"",""0""
""blur"",""0"",""0""
""focus"",""0"",""0""
""fullscreenenter"",""0"",""3715""
""fullscreenexit"",""2"",""21457""
""blur"",""2"",""25225""
""focus"",""3"",""474684""
""blur"",""3"",""476884""
""focus"",""3"",""1274692""
""blur"",""40"",""1456056""
""focus"",""41"",""1470641""
""blur"",""42"",""1502360""
""focus"",""42"",""1511137""
""blur"",""44"",""1538903""
""focus"",""44"",""1546239""
","""event"",""trial"",""time""
""blur"",""0"",""0""
""blur"",""2"",""25225""
""blur"",""3"",""476884""
""blur"",""40"",""1456056""
""blur"",""42"",""1502360""
""blur"",""44"",""1538903""
","""event"",""trial"",""time""
""focus"",""0"",""0""
""focus"",""0"",""0""
""focus"",""3"",""474684""
""focus"",""3"",""1274692""
""focus"",""41"",""1470641""
""focus"",""42"",""1511137""
""focus"",""44"",""1546239""
","""event"",""trial"",""time""
""fullscreenenter"",""0"",""3715""
","""event"",""trial"",""time""
""fullscreenexit"",""2"",""21457""
","6560","run_exp/static/audio/clip_17_q1.m4a","49","","","","","","","","","","","","","","","","","","","","","","",""
"","correct","76","1670993","0.0-49.0-0.0","""event"",""trial"",""time""
""focus"",""0"",""0""
""blur"",""0"",""0""
""focus"",""0"",""0""
""fullscreenenter"",""0"",""3715""
""fullscreenexit"",""2"",""21457""
""blur"",""2"",""25225""
""focus"",""3"",""474684""
""blur"",""3"",""476884""
""focus"",""3"",""1274692""
""blur"",""40"",""1456056""
""focus"",""41"",""1470641""
""blur"",""42"",""1502360""
""focus"",""42"",""1511137""
""blur"",""44"",""1538903""
""focus"",""44"",""1546239""
","""event"",""trial"",""time""
""blur"",""0"",""0""
""blur"",""2"",""25225""
""blur"",""3"",""476884""
""blur"",""40"",""1456056""
""blur"",""42"",""1502360""
""blur"",""44"",""1538903""
","""event"",""trial"",""time""
""focus"",""0"",""0""
""focus"",""0"",""0""
""focus"",""3"",""474684""
""focus"",""3"",""1274692""
""focus"",""41"",""1470641""
""focus"",""42"",""1511137""
""focus"",""44"",""1546239""
","""event"",""trial"",""time""
""fullscreenenter"",""0"",""3715""
","""event"",""trial"",""time""
""fullscreenexit"",""2"",""21457""
","null","run_exp/static/audio/clip_18_correct.m4a","null","","","","","<div class='center'><p>That's correct!</p></div>","","","","","","","","","","","","","","","","","",""
"","html-keyboard-response","77","1671916","0.0-49.0-1.0","""event"",""trial"",""time""
""focus"",""0"",""0""
""blur"",""0"",""0""
""focus"",""0"",""0""
""fullscreenenter"",""0"",""3715""
""fullscreenexit"",""2"",""21457""
""blur"",""2"",""25225""
""focus"",""3"",""474684""
""blur"",""3"",""476884""
""focus"",""3"",""1274692""
""blur"",""40"",""1456056""
""focus"",""41"",""1470641""
""blur"",""42"",""1502360""
""focus"",""42"",""1511137""
""blur"",""44"",""1538903""
""focus"",""44"",""1546239""
","""event"",""trial"",""time""
""blur"",""0"",""0""
""blur"",""2"",""25225""
""blur"",""3"",""476884""
""blur"",""40"",""1456056""
""blur"",""42"",""1502360""
""blur"",""44"",""1538903""
","""event"",""trial"",""time""
""focus"",""0"",""0""
""focus"",""0"",""0""
""focus"",""3"",""474684""
""focus"",""3"",""1274692""
""focus"",""41"",""1470641""
""focus"",""42"",""1511137""
""focus"",""44"",""1546239""
","""event"",""trial"",""time""
""fullscreenenter"",""0"",""3715""
","""event"",""trial"",""time""
""fullscreenexit"",""2"",""21457""
","922","<div class='center'><p>That's correct!</p><p><b>[Press the space bar to continue]</b></p></div>","32","","","","","","","","","","","","","","","","","","","","","","",""
"","audio-keyboard-response","78","1678540","0.0-49.0-2.0","""event"",""trial"",""time""
""focus"",""0"",""0""
""blur"",""0"",""0""
""focus"",""0"",""0""
""fullscreenenter"",""0"",""3715""
""fullscreenexit"",""2"",""21457""
""blur"",""2"",""25225""
""focus"",""3"",""474684""
""blur"",""3"",""476884""
""focus"",""3"",""1274692""
""blur"",""40"",""1456056""
""focus"",""41"",""1470641""
""blur"",""42"",""1502360""
""focus"",""42"",""1511137""
""blur"",""44"",""1538903""
""focus"",""44"",""1546239""
","""event"",""trial"",""time""
""blur"",""0"",""0""
""blur"",""2"",""25225""
""blur"",""3"",""476884""
""blur"",""40"",""1456056""
""blur"",""42"",""1502360""
""blur"",""44"",""1538903""
","""event"",""trial"",""time""
""focus"",""0"",""0""
""focus"",""0"",""0""
""focus"",""3"",""474684""
""focus"",""3"",""1274692""
""focus"",""41"",""1470641""
""focus"",""42"",""1511137""
""focus"",""44"",""1546239""
","""event"",""trial"",""time""
""fullscreenenter"",""0"",""3715""
","""event"",""trial"",""time""
""fullscreenexit"",""2"",""21457""
","6624","run_exp/static/audio/clip_20_q2.m4a","50","","","","","","","","","","","","","","","","","","","","","","",""
"","correct","79","1681013","0.0-50.0-0.0","""event"",""trial"",""time""
""focus"",""0"",""0""
""blur"",""0"",""0""
""focus"",""0"",""0""
""fullscreenenter"",""0"",""3715""
""fullscreenexit"",""2"",""21457""
""blur"",""2"",""25225""
""focus"",""3"",""474684""
""blur"",""3"",""476884""
""focus"",""3"",""1274692""
""blur"",""40"",""1456056""
""focus"",""41"",""1470641""
""blur"",""42"",""1502360""
""focus"",""42"",""1511137""
""blur"",""44"",""1538903""
""focus"",""44"",""1546239""
","""event"",""trial"",""time""
""blur"",""0"",""0""
""blur"",""2"",""25225""
""blur"",""3"",""476884""
""blur"",""40"",""1456056""
""blur"",""42"",""1502360""
""blur"",""44"",""1538903""
","""event"",""trial"",""time""
""focus"",""0"",""0""
""focus"",""0"",""0""
""focus"",""3"",""474684""
""focus"",""3"",""1274692""
""focus"",""41"",""1470641""
""focus"",""42"",""1511137""
""focus"",""44"",""1546239""
","""event"",""trial"",""time""
""fullscreenenter"",""0"",""3715""
","""event"",""trial"",""time""
""fullscreenexit"",""2"",""21457""
","null","run_exp/static/audio/clip_18_correct.m4a","null","","","","","<div class='center'><p>That's correct!</p></div>","","","","","","","","","","","","","","","","","",""
"","html-keyboard-response","80","1681437","0.0-50.0-1.0","""event"",""trial"",""time""
""focus"",""0"",""0""
""blur"",""0"",""0""
""focus"",""0"",""0""
""fullscreenenter"",""0"",""3715""
""fullscreenexit"",""2"",""21457""
""blur"",""2"",""25225""
""focus"",""3"",""474684""
""blur"",""3"",""476884""
""focus"",""3"",""1274692""
""blur"",""40"",""1456056""
""focus"",""41"",""1470641""
""blur"",""42"",""1502360""
""focus"",""42"",""1511137""
""blur"",""44"",""1538903""
""focus"",""44"",""1546239""
","""event"",""trial"",""time""
""blur"",""0"",""0""
""blur"",""2"",""25225""
""blur"",""3"",""476884""
""blur"",""40"",""1456056""
""blur"",""42"",""1502360""
""blur"",""44"",""1538903""
","""event"",""trial"",""time""
""focus"",""0"",""0""
""focus"",""0"",""0""
""focus"",""3"",""474684""
""focus"",""3"",""1274692""
""focus"",""41"",""1470641""
""focus"",""42"",""1511137""
""focus"",""44"",""1546239""
","""event"",""trial"",""time""
""fullscreenenter"",""0"",""3715""
","""event"",""trial"",""time""
""fullscreenexit"",""2"",""21457""
","422","<div class='center'><p>That's correct!</p><p><b>[Press the space bar to continue]</b></p></div>","32","","","","","","","","","","","","","","","","","","","","","","",""
"","audio-keyboard-response","81","1686476","0.0-50.0-2.0","""event"",""trial"",""time""
""focus"",""0"",""0""
""blur"",""0"",""0""
""focus"",""0"",""0""
""fullscreenenter"",""0"",""3715""
""fullscreenexit"",""2"",""21457""
""blur"",""2"",""25225""
""focus"",""3"",""474684""
""blur"",""3"",""476884""
""focus"",""3"",""1274692""
""blur"",""40"",""1456056""
""focus"",""41"",""1470641""
""blur"",""42"",""1502360""
""focus"",""42"",""1511137""
""blur"",""44"",""1538903""
""focus"",""44"",""1546239""
","""event"",""trial"",""time""
""blur"",""0"",""0""
""blur"",""2"",""25225""
""blur"",""3"",""476884""
""blur"",""40"",""1456056""
""blur"",""42"",""1502360""
""blur"",""44"",""1538903""
","""event"",""trial"",""time""
""focus"",""0"",""0""
""focus"",""0"",""0""
""focus"",""3"",""474684""
""focus"",""3"",""1274692""
""focus"",""41"",""1470641""
""focus"",""42"",""1511137""
""focus"",""44"",""1546239""
","""event"",""trial"",""time""
""fullscreenenter"",""0"",""3715""
","""event"",""trial"",""time""
""fullscreenexit"",""2"",""21457""
","5039","run_exp/static/audio/clip_22_q3.m4a","50","","","","","","","","","","","","","","","","","","","","","","",""
"","correct","82","1688953","0.0-51.0-0.0","""event"",""trial"",""time""
""focus"",""0"",""0""
""blur"",""0"",""0""
""focus"",""0"",""0""
""fullscreenenter"",""0"",""3715""
""fullscreenexit"",""2"",""21457""
""blur"",""2"",""25225""
""focus"",""3"",""474684""
""blur"",""3"",""476884""
""focus"",""3"",""1274692""
""blur"",""40"",""1456056""
""focus"",""41"",""1470641""
""blur"",""42"",""1502360""
""focus"",""42"",""1511137""
""blur"",""44"",""1538903""
""focus"",""44"",""1546239""
","""event"",""trial"",""time""
""blur"",""0"",""0""
""blur"",""2"",""25225""
""blur"",""3"",""476884""
""blur"",""40"",""1456056""
""blur"",""42"",""1502360""
""blur"",""44"",""1538903""
","""event"",""trial"",""time""
""focus"",""0"",""0""
""focus"",""0"",""0""
""focus"",""3"",""474684""
""focus"",""3"",""1274692""
""focus"",""41"",""1470641""
""focus"",""42"",""1511137""
""focus"",""44"",""1546239""
","""event"",""trial"",""time""
""fullscreenenter"",""0"",""3715""
","""event"",""trial"",""time""
""fullscreenexit"",""2"",""21457""
","null","run_exp/static/audio/clip_18_correct.m4a","null","","","","","<div class='center'><p>That's correct!</p></div>","","","","","","","","","","","","","","","","","",""
"","html-keyboard-response","83","1689452","0.0-51.0-1.0","""event"",""trial"",""time""
""focus"",""0"",""0""
""blur"",""0"",""0""
""focus"",""0"",""0""
""fullscreenenter"",""0"",""3715""
""fullscreenexit"",""2"",""21457""
""blur"",""2"",""25225""
""focus"",""3"",""474684""
""blur"",""3"",""476884""
""focus"",""3"",""1274692""
""blur"",""40"",""1456056""
""focus"",""41"",""1470641""
""blur"",""42"",""1502360""
""focus"",""42"",""1511137""
""blur"",""44"",""1538903""
""focus"",""44"",""1546239""
","""event"",""trial"",""time""
""blur"",""0"",""0""
""blur"",""2"",""25225""
""blur"",""3"",""476884""
""blur"",""40"",""1456056""
""blur"",""42"",""1502360""
""blur"",""44"",""1538903""
","""event"",""trial"",""time""
""focus"",""0"",""0""
""focus"",""0"",""0""
""focus"",""3"",""474684""
""focus"",""3"",""1274692""
""focus"",""41"",""1470641""
""focus"",""42"",""1511137""
""focus"",""44"",""1546239""
","""event"",""trial"",""time""
""fullscreenenter"",""0"",""3715""
","""event"",""trial"",""time""
""fullscreenexit"",""2"",""21457""
","498","<div class='center'><p>That's correct!</p><p><b>[Press the space bar to continue]</b></p></div>","32","","","","","","","","","","","","","","","","","","","","","","",""
"","audio-keyboard-response","84","1694220","0.0-51.0-2.0","""event"",""trial"",""time""
""focus"",""0"",""0""
""blur"",""0"",""0""
""focus"",""0"",""0""
""fullscreenenter"",""0"",""3715""
""fullscreenexit"",""2"",""21457""
""blur"",""2"",""25225""
""focus"",""3"",""474684""
""blur"",""3"",""476884""
""focus"",""3"",""1274692""
""blur"",""40"",""1456056""
""focus"",""41"",""1470641""
""blur"",""42"",""1502360""
""focus"",""42"",""1511137""
""blur"",""44"",""1538903""
""focus"",""44"",""1546239""
","""event"",""trial"",""time""
""blur"",""0"",""0""
""blur"",""2"",""25225""
""blur"",""3"",""476884""
""blur"",""40"",""1456056""
""blur"",""42"",""1502360""
""blur"",""44"",""1538903""
","""event"",""trial"",""time""
""focus"",""0"",""0""
""focus"",""0"",""0""
""focus"",""3"",""474684""
""focus"",""3"",""1274692""
""focus"",""41"",""1470641""
""focus"",""42"",""1511137""
""focus"",""44"",""1546239""
","""event"",""trial"",""time""
""fullscreenenter"",""0"",""3715""
","""event"",""trial"",""time""
""fullscreenexit"",""2"",""21457""
","4767","run_exp/static/audio/clip_24_q4.m4a","49","","","","","","","","","","","","","","","","","","","","","","",""
"","correct","85","1696739","0.0-52.0-0.0","""event"",""trial"",""time""
""focus"",""0"",""0""
""blur"",""0"",""0""
""focus"",""0"",""0""
""fullscreenenter"",""0"",""3715""
""fullscreenexit"",""2"",""21457""
""blur"",""2"",""25225""
""focus"",""3"",""474684""
""blur"",""3"",""476884""
""focus"",""3"",""1274692""
""blur"",""40"",""1456056""
""focus"",""41"",""1470641""
""blur"",""42"",""1502360""
""focus"",""42"",""1511137""
""blur"",""44"",""1538903""
""focus"",""44"",""1546239""
","""event"",""trial"",""time""
""blur"",""0"",""0""
""blur"",""2"",""25225""
""blur"",""3"",""476884""
""blur"",""40"",""1456056""
""blur"",""42"",""1502360""
""blur"",""44"",""1538903""
","""event"",""trial"",""time""
""focus"",""0"",""0""
""focus"",""0"",""0""
""focus"",""3"",""474684""
""focus"",""3"",""1274692""
""focus"",""41"",""1470641""
""focus"",""42"",""1511137""
""focus"",""44"",""1546239""
","""event"",""trial"",""time""
""fullscreenenter"",""0"",""3715""
","""event"",""trial"",""time""
""fullscreenexit"",""2"",""21457""
","null","run_exp/static/audio/clip_18_correct.m4a","null","","","","","<div class='center'><p>That's correct!</p></div>","","","","","","","","","","","","","","","","","",""
"","html-keyboard-response","86","1697276","0.0-52.0-1.0","""event"",""trial"",""time""
""focus"",""0"",""0""
""blur"",""0"",""0""
""focus"",""0"",""0""
""fullscreenenter"",""0"",""3715""
""fullscreenexit"",""2"",""21457""
""blur"",""2"",""25225""
""focus"",""3"",""474684""
""blur"",""3"",""476884""
""focus"",""3"",""1274692""
""blur"",""40"",""1456056""
""focus"",""41"",""1470641""
""blur"",""42"",""1502360""
""focus"",""42"",""1511137""
""blur"",""44"",""1538903""
""focus"",""44"",""1546239""
","""event"",""trial"",""time""
""blur"",""0"",""0""
""blur"",""2"",""25225""
""blur"",""3"",""476884""
""blur"",""40"",""1456056""
""blur"",""42"",""1502360""
""blur"",""44"",""1538903""
","""event"",""trial"",""time""
""focus"",""0"",""0""
""focus"",""0"",""0""
""focus"",""3"",""474684""
