"success","trial_type","trial_index","time_elapsed","internal_node_id","interactions","blur_events","focus_events","fullscreenenter_events","fullscreenexit_events","rt","stimulus","key_press","subject_id","participant_id","age","gender","prompt","response","choice_outcomes","context_n","context_img_id","trial_n","probe_img_id","pR_red","pR_white","pR_black","outcome","contextArray_ind","validImageProbes","invalidImageProbes","pRew_Red","pRew_White","pRew_Black","availableForMemProbe","choice_blocks"
"true","fullscreen","0","4610","0.0-0.0","""event"",""trial"",""time""
""fullscreenenter"",""0"",""3632""
","
","
","""event"",""trial"",""time""
""fullscreenenter"",""0"",""3632""
","
","","","","","","","","","","","","","","","","","","","","","","","","","",""
"","pavlovia","1","4613","0.0-1.0","""event"",""trial"",""time""
""fullscreenenter"",""0"",""3632""
","
","
","""event"",""trial"",""time""
""fullscreenenter"",""0"",""3632""
","
","","","","","","","","","","","","","","","","","","","","","","","","","",""
"","instruc1","2","49723","0.0-2.0","""event"",""trial"",""time""
""fullscreenenter"",""0"",""3632""
","
","
","""event"",""trial"",""time""
""fullscreenenter"",""0"",""3632""
","
","null","run_exp/static/audio/clip_1_welcome.m4a","null","234","900","10","Female","<div class='center'><p>Welcome! This is the first part of the study. It will last ~30 minutes. In part 1 and part 2 of the study, you are the head captain of a pirate ship traveling around the world to different islands. You will play a few different games throughout these two parts. Here is an overview of them:</p><br><p>Part 1 (today)</p><p>1. Instructions, practice game, and quiz</p><p>2. Pick a pirate game on 6 different islands</p><br><p>Part 2 (tomorrow)</p><p>3. Pick a pirate game and memory game</p><p>4. Where did you see this ship? </p></div>","","","","","","","","","","","","","","","","","",""
"","html-keyboard-response","3","50005","0.0-3.0","""event"",""trial"",""time""
""fullscreenenter"",""0"",""3632""
","
","
","""event"",""trial"",""time""
""fullscreenenter"",""0"",""3632""
","
","278.7000000476837","<div class='center'><p>Welcome! This is the first part of the study. It will last ~30 minutes. In part 1 and part 2 of the study, you are the head captain of a pirate ship traveling around the world to different islands. You will play a few different games throughout these two parts. Here is an overview of them:</p><br><p>Part 1 (today)</p><p>1. Instructions, practice game, and quiz</p><p>2. Pick a pirate game on 6 different islands</p><br><p>Part 2 (tomorrow)</p><p>3. Pick a pirate game and memory game</p><p>4. Where did you see this ship? </p><p><b>[Press the space bar to continue]</b></p></div>","32","","","","","","","","","","","","","","","","","","","","","","",""
"","instruc2","4","55338","0.0-4.0","""event"",""trial"",""time""
""fullscreenenter"",""0"",""3632""
","
","
","""event"",""trial"",""time""
""fullscreenenter"",""0"",""3632""
","
","null","run_exp/static/audio/clip_2_different_places.m4a","null","","","","","<div class='center'><p>Today, you’ll visit these 6 islands on your journey. You'll be able to see these islands from your ship.</p><p><img src='run_exp/static/images/contexts/all_contexts.png' height='500'></p></div>","","","","","","","","","","","","","","","","","",""
"","html-keyboard-response","5","57315","0.0-5.0","""event"",""trial"",""time""
""fullscreenenter"",""0"",""3632""
","
","
","""event"",""trial"",""time""
""fullscreenenter"",""0"",""3632""
","
","1973.6000000238419","<div class='center'><p>Today, you’ll visit these 6 islands on your journey. You'll be able to see these islands from your ship.</p><p><img src='run_exp/static/images/contexts/all_contexts.png' height='500'></p><p><b>[Press the space bar to continue]</b></p></div>","32","","","","","","","","","","","","","","","","","","","","","","",""
"","instruc3","6","66998","0.0-6.0","""event"",""trial"",""time""
""fullscreenenter"",""0"",""3632""
","
","
","""event"",""trial"",""time""
""fullscreenenter"",""0"",""3632""
","
","null","run_exp/static/audio/clip_3_goal_of_game_1.m4a","null","","","","","<div class='center'><p> The pirates on your ship will rob other ships as they leave the island.</p> These ships have just sold their goods to the islanders, so they will be filled with lots and lots of gold.</p><p><img src='run_exp/static/images/tutorial/ship_center.png' height='400'></p></div>","","","","","","","","","","","","","","","","","",""
"","html-keyboard-response","7","68005","0.0-7.0","""event"",""trial"",""time""
""fullscreenenter"",""0"",""3632""
","
","
","""event"",""trial"",""time""
""fullscreenenter"",""0"",""3632""
","
","1006.1999999284744","<div class='center'><p> The pirates on your ship will rob other ships as they leave the island.</p> These ships have just sold their goods to the islanders, so they will be filled with lots and lots of gold.</p><p><img src='run_exp/static/images/tutorial/ship_center.png' height='400'></p><p><b>[Press the space bar to continue]</b></p></div>","32","","","","","","","","","","","","","","","","","","","","","","",""
"","instruc4","8","95999","0.0-8.0","""event"",""trial"",""time""
""fullscreenenter"",""0"",""3632""
","
","
","""event"",""trial"",""time""
""fullscreenenter"",""0"",""3632""
","
","null","run_exp/static/audio/clip_4_goal_of_game_2.m4a","null","","","","","<div class='center'><p>As the head captain, you do not have to rob any ships yourself. Another pirate will be doing the robbing for you. First, you will choose a pirate to rob the next ship.</p><p><img src='run_exp/static/images/tutorial/pirates_all_crop.png' height='200'></p><p>Then, you'll see if the pirate successfully robbed the ship of their gold. If they were successful, then you'll get a stack of gold coins like this:</p><p><img src='run_exp/static/images/tutorial/reward.png' height='150'></p><p> If they were <b>not</b> successful, then you'll get no gold coins, and you'll see a big red x like this: </p><p><img src='run_exp/static/images/tutorial/reward_no.png' height='150'></p><p> How much bonus money you make is based on how many gold coins you collect.</p><div>","","","","","","","","","","","","","","","","","",""
"","html-keyboard-response","9","97220","0.0-9.0","""event"",""trial"",""time""
""fullscreenenter"",""0"",""3632""
","
","
","""event"",""trial"",""time""
""fullscreenenter"",""0"",""3632""
","
","1217.7999999523163","<div class='center'><p>As the head captain, you do not have to rob any ships yourself. Another pirate will be doing the robbing for you. First, you will choose a pirate to rob the next ship.</p><p><img src='run_exp/static/images/tutorial/pirates_all_crop.png' height='200'></p><p>Then, you'll see if the pirate successfully robbed the ship of their gold. If they were successful, then you'll get a stack of gold coins like this:</p><p><img src='run_exp/static/images/tutorial/reward.png' height='150'></p><p> If they were <b>not</b> successful, then you'll get no gold coins, and you'll see a big red x like this: </p><p><img src='run_exp/static/images/tutorial/reward_no.png' height='150'></p><p> How much bonus money you make is based on how many gold coins you collect.</p<p><b>[Press the space bar to continue]</b></p></div>","32","","","","","","","","","","","","","","","","","","","","","","",""
"","instruc5","10","118598","0.0-10.0","""event"",""trial"",""time""
""fullscreenenter"",""0"",""3632""
","
","
","""event"",""trial"",""time""
""fullscreenenter"",""0"",""3632""
","
","21374.199999928474","run_exp/static/audio/clip_5_probabilistic.m4a","49","","","","","<div class='center'><p>Even the most skilled pirate can not rob EVERY ship.</p><p> Some ships will have very strong protections against pirate attacks.</p><p> Blue beard, here, is very, very good at robbing ships, but he won't be successful every time he tries to rob one.</p><p> You can press the <b>‘1’</b> key on the keyboard to choose him.</p><p> Try choosing him 10 times to see how often he succeeds at robbing a ship. </p><p><img src='run_exp/static/images/tutorial/blue.png' height='500'></p></div>","","","","","","","","","","","","","","","","","",""
"","html-keyboard-response","11","120107","0.0-11.0","""event"",""trial"",""time""
""fullscreenenter"",""0"",""3632""
","
","
","""event"",""trial"",""time""
""fullscreenenter"",""0"",""3632""
","
","null","<div class='center'><p><img src='run_exp/static/images/tutorial/blue_win.png' height='500'></p></div>","null","","","","","","","","","","","","","","","","","","","","","","",""
"","html-keyboard-response","12","121240","0.0-12.0","""event"",""trial"",""time""
""fullscreenenter"",""0"",""3632""
","
","
","""event"",""trial"",""time""
""fullscreenenter"",""0"",""3632""
","
","1130.3999999761581","<div class='center'><img src='run_exp/static/images/tutorial/blue.png' height='500'></p></div>","49","","","","","","","","","","","","","","","","","","","","","","",""
"","html-keyboard-response","13","122758","0.0-13.0","""event"",""trial"",""time""
""fullscreenenter"",""0"",""3632""
","
","
","""event"",""trial"",""time""
""fullscreenenter"",""0"",""3632""
","
","null","<div class='center'><p><img src='run_exp/static/images/tutorial/blue_win.png' height='500'></p></div>","null","","","","","","","","","","","","","","","","","","","","","","",""
"","html-keyboard-response","14","123103","0.0-14.0","""event"",""trial"",""time""
""fullscreenenter"",""0"",""3632""
","
","
","""event"",""trial"",""time""
""fullscreenenter"",""0"",""3632""
","
","342.7000000476837","<div class='center'><img src='run_exp/static/images/tutorial/blue.png' height='500'></p></div>","49","","","","","","","","","","","","","","","","","","","","","","",""
"","html-keyboard-response","15","124607","0.0-15.0","""event"",""trial"",""time""
""fullscreenenter"",""0"",""3632""
","
","
","""event"",""trial"",""time""
""fullscreenenter"",""0"",""3632""
","
","null","<div class='center'><p><img src='run_exp/static/images/tutorial/blue_win.png' height='500'></p></div>","null","","","","","","","","","","","","","","","","","","","","","","",""
"","html-keyboard-response","16","124878","0.0-16.0","""event"",""trial"",""time""
""fullscreenenter"",""0"",""3632""
","
","
","""event"",""trial"",""time""
""fullscreenenter"",""0"",""3632""
","
","268.2000000476837","<div class='center'><img src='run_exp/static/images/tutorial/blue.png' height='500'></p></div>","49","","","","","","","","","","","","","","","","","","","","","","",""
"","html-keyboard-response","17","126387","0.0-17.0","""event"",""trial"",""time""
""fullscreenenter"",""0"",""3632""
","
","
","""event"",""trial"",""time""
""fullscreenenter"",""0"",""3632""
","
","null","<div class='center'><p><img src='run_exp/static/images/tutorial/blue_no_win.png' height='500'></p></div>","null","","","","","","","","","","","","","","","","","","","","","","",""
"","html-keyboard-response","18","126683","0.0-18.0","""event"",""trial"",""time""
""fullscreenenter"",""0"",""3632""
","
","
","""event"",""trial"",""time""
""fullscreenenter"",""0"",""3632""
","
","294","<div class='center'><img src='run_exp/static/images/tutorial/blue.png' height='500'></p></div>","49","","","","","","","","","","","","","","","","","","","","","","",""
"","html-keyboard-response","19","128190","0.0-19.0","""event"",""trial"",""time""
""fullscreenenter"",""0"",""3632""
","
","
","""event"",""trial"",""time""
""fullscreenenter"",""0"",""3632""
","
","null","<div class='center'><p><img src='run_exp/static/images/tutorial/blue_win.png' height='500'></p></div>","null","","","","","","","","","","","","","","","","","","","","","","",""
"","html-keyboard-response","20","128458","0.0-20.0","""event"",""trial"",""time""
""fullscreenenter"",""0"",""3632""
","
","
","""event"",""trial"",""time""
""fullscreenenter"",""0"",""3632""
","
","266.5","<div class='center'><img src='run_exp/static/images/tutorial/blue.png' height='500'></p></div>","49","","","","","","","","","","","","","","","","","","","","","","",""
"","html-keyboard-response","21","129967","0.0-21.0","""event"",""trial"",""time""
""fullscreenenter"",""0"",""3632""
","
","
","""event"",""trial"",""time""
""fullscreenenter"",""0"",""3632""
","
","null","<div class='center'><p><img src='run_exp/static/images/tutorial/blue_win.png' height='500'></p></div>","null","","","","","","","","","","","","","","","","","","","","","","",""
"","html-keyboard-response","22","130233","0.0-22.0","""event"",""trial"",""time""
""fullscreenenter"",""0"",""3632""
","
","
","""event"",""trial"",""time""
""fullscreenenter"",""0"",""3632""
","
","263.60000002384186","<div class='center'><img src='run_exp/static/images/tutorial/blue.png' height='500'></p></div>","49","","","","","","","","","","","","","","","","","","","","","","",""
"","html-keyboard-response","23","131748","0.0-23.0","""event"",""trial"",""time""
""fullscreenenter"",""0"",""3632""
","
","
","""event"",""trial"",""time""
""fullscreenenter"",""0"",""3632""
","
","null","<div class='center'><p><img src='run_exp/static/images/tutorial/blue_win.png' height='500'></p></div>","null","","","","","","","","","","","","","","","","","","","","","","",""
"","html-keyboard-response","24","131983","0.0-24.0","""event"",""trial"",""time""
""fullscreenenter"",""0"",""3632""
","
","
","""event"",""trial"",""time""
""fullscreenenter"",""0"",""3632""
","
","233.79999995231628","<div class='center'><img src='run_exp/static/images/tutorial/blue.png' height='500'></p></div>","49","","","","","","","","","","","","","","","","","","","","","","",""
"","html-keyboard-response","25","133497","0.0-25.0","""event"",""trial"",""time""
""fullscreenenter"",""0"",""3632""
","
","
","""event"",""trial"",""time""
""fullscreenenter"",""0"",""3632""
","
","null","<div class='center'><p><img src='run_exp/static/images/tutorial/blue_no_win.png' height='500'></p></div>","null","","","","","","","","","","","","","","","","","","","","","","",""
"","html-keyboard-response","26","133753","0.0-26.0","""event"",""trial"",""time""
""fullscreenenter"",""0"",""3632""
","
","
","""event"",""trial"",""time""
""fullscreenenter"",""0"",""3632""
","
","253.90000009536743","<div class='center'><img src='run_exp/static/images/tutorial/blue.png' height='500'></p></div>","49","","","","","","","","","","","","","","","","","","","","","","",""
"","html-keyboard-response","27","135270","0.0-27.0","""event"",""trial"",""time""
""fullscreenenter"",""0"",""3632""
","
","
","""event"",""trial"",""time""
""fullscreenenter"",""0"",""3632""
","
","null","<div class='center'><p><img src='run_exp/static/images/tutorial/blue_win.png' height='500'></p></div>","null","","","","","","","","","","","","","","","","","","","","","","",""
"","html-keyboard-response","28","135530","0.0-28.0","""event"",""trial"",""time""
""fullscreenenter"",""0"",""3632""
","
","
","""event"",""trial"",""time""
""fullscreenenter"",""0"",""3632""
","
","258.2999999523163","<div class='center'><img src='run_exp/static/images/tutorial/blue.png' height='500'></p></div>","49","","","","","","","","","","","","","","","","","","","","","","",""
"","html-keyboard-response","29","137046","0.0-29.0","""event"",""trial"",""time""
""fullscreenenter"",""0"",""3632""
","
","
","""event"",""trial"",""time""
""fullscreenenter"",""0"",""3632""
","
","null","<div class='center'><p><img src='run_exp/static/images/tutorial/blue_win.png' height='500'></p></div>","null","","","","","","","","","","","","","","","","","","","","","","",""
"","instruc6","30","142599","0.0-30.0","""event"",""trial"",""time""
""fullscreenenter"",""0"",""3632""
","
","
","""event"",""trial"",""time""
""fullscreenenter"",""0"",""3632""
","
","null","run_exp/static/audio/clip_6_blue_beard_outcome.m4a","null","","","","","<div class='center'><p> See, he succeeded in robbing the ships most of the time but not every time. </p></div>","","","","","","","","","","","","","","","","","",""
"","html-keyboard-response","31","145074","0.0-31.0","""event"",""trial"",""time""
""fullscreenenter"",""0"",""3632""
","
","
","""event"",""trial"",""time""
""fullscreenenter"",""0"",""3632""
","
","2473.899999976158","<div class='center'><p> See, he succeeded in robbing the ships most of the time but not every time. </p><p><b>[Press the space bar to continue]</b></p></div>","32","","","","","","","","","","","","","","","","","","","","","","",""
"","audio-keyboard-response","32","154604","0.0-32.0","""event"",""trial"",""time""
""fullscreenenter"",""0"",""3632""
","
","
","""event"",""trial"",""time""
""fullscreenenter"",""0"",""3632""
","
","9527.799999952316","run_exp/static/audio/clip_7_pick_pirate.m4a","51","","","","","","","","","","","","","","","","","","","","","","",""
"","audio-keyboard-response","33","157865","0.0-33.0-0.0","""event"",""trial"",""time""
""fullscreenenter"",""0"",""3632""
","
","
","""event"",""trial"",""time""
""fullscreenenter"",""0"",""3632""
","
","3257.600000023842","run_exp/static/audio/clip_8_chosen_pirate_win.m4a","32","","","","","","","","","","","","","","","","","","","","","","",""
"","audio-keyboard-response","34","160962","0.0-33.0-1.0","""event"",""trial"",""time""
""fullscreenenter"",""0"",""3632""
","
","
","""event"",""trial"",""time""
""fullscreenenter"",""0"",""3632""
","
","3094.3000000715256","run_exp/static/audio/clip_9_pick_a_pirate_again.m4a","49","","","","","","","","","","","","","","","","","","","","","","",""
"","audio-keyboard-response","35","164217","0.0-34.0-0.0","""event"",""trial"",""time""
""fullscreenenter"",""0"",""3632""
","
","
","""event"",""trial"",""time""
""fullscreenenter"",""0"",""3632""
","
","3250.3000000715256","run_exp/static/audio/clip_10_chosen_pirate_loss.m4a","32","","","","","","","","","","","","","","","","","","","","","","",""
"","instruc9","36","169720","0.0-35.0-0.0","""event"",""trial"",""time""
""fullscreenenter"",""0"",""3632""
","
","
","""event"",""trial"",""time""
""fullscreenenter"",""0"",""3632""
","
","null","run_exp/static/audio/clip_11_time_out.m4a","null","","","","","<div class='center'><p>If you don’t make your choice fast enough, you’ll have to wait a few seconds before you can make another one. </p><p><img src='run_exp/static/images/miscellaneous/hurry_up.png' height='500'></p></div>","","","","","","","","","","","","","","","","","",""
"","html-keyboard-response","37","170068","0.0-35.0-1.0","""event"",""trial"",""time""
""fullscreenenter"",""0"",""3632""
","
","
","""event"",""trial"",""time""
""fullscreenenter"",""0"",""3632""
","
","344.39999997615814","<div class='center'><p>If you don’t make your choice fast enough, you’ll have to wait a few seconds before you can make another one. </p><p><img src='run_exp/static/images/miscellaneous/hurry_up.png' height='500'></p><p><b>[Press the space bar to continue]</b></p></div>","32","","","","","","","","","","","","","","","","","","","","","","",""
"","instruc10","38","209159","0.0-35.0-2.0","""event"",""trial"",""time""
""fullscreenenter"",""0"",""3632""
","
","
","""event"",""trial"",""time""
""fullscreenenter"",""0"",""3632""
","
","null","run_exp/static/audio/clip_12_probe.m4a","null","","","","","<div class='center'><p>Once you've chosen a pirate, you’ll be shown the ship they are robbing. You will never rob the same ship twice. Ships can be told apart from one another by the image on them. These are the goods that they sell. See, this ship has a travel mug on it. </p><p> You’ll have to remember which island you saw each ship on. You will win more gold coins and hence more bonus money if you remember correctly! To help you remember, you can imagine a story. For example, here, you could imagine a mug full of water in the desert. Or, as another example, if on the forest island, your pirate robbed a ship with an apple on it, you could imagine an apple falling from a tree in the forest. </p><p><img src='run_exp/static/images/tutorial/example_probe.png' height='500'></p></div>","","","","","","","","","","","","","","","","","",""
"","html-keyboard-response","39","211229","0.0-35.0-3.0","""event"",""trial"",""time""
""fullscreenenter"",""0"",""3632""
","
","
","""event"",""trial"",""time""
""fullscreenenter"",""0"",""3632""
","
","2066.2999999523163","<div class='center'><p>Once you've chosen a pirate, you’ll be shown the ship they are robbing. You will never rob the same ship twice. Ships can be told apart from one another by the image on them. These are the goods that they sell. See, this ship has a travel mug on it. </p><p> You’ll have to remember which island you saw each ship on. You will win more gold coins and hence more bonus money if you remember correctly! To help you remember, you can imagine a story. For example, here, you could imagine a mug full of water in the desert. Or, as another example, if on the forest island, your pirate robbed a ship with an apple on it, you could imagine an apple falling from a tree in the forest. </p><p><img src='run_exp/static/images/tutorial/example_probe.png' height='500'></p><p><b>[Press the space bar to continue]</b></p></div>","32","","","","","","","","","","","","","","","","","","","","","","",""
"","instruc11","40","227640","0.0-35.0-4.0","""event"",""trial"",""time""
""fullscreenenter"",""0"",""3632""
","
","
","""event"",""trial"",""time""
""fullscreenenter"",""0"",""3632""
","
","null","run_exp/static/audio/clip_13_changepoint.m4a","null","","","","","<div class='center'><p>How successful a pirate is at robbing ships will depend on the island you’re on.</p><p> A pirate may have visited this island many times before and gained a lot of practice robbing ships there.</p><p>So, they’re more likely to be successful than a pirate who has never visited the island before.</p></div>","","","","","","","","","","","","","","","","","",""
"","html-keyboard-response","41","228362","0.0-35.0-5.0","""event"",""trial"",""time""
""fullscreenenter"",""0"",""3632""
","
","
","""event"",""trial"",""time""
""fullscreenenter"",""0"",""3632""
","
","719.6000000238419","<div class='center'><p>How successful a pirate is at robbing ships will depend on the island you’re on.</p><p> A pirate may have visited this island many times before and gained a lot of practice robbing ships there.</p><p>So, they’re more likely to be successful than a pirate who has never visited the island before.</p><p><b>[Press the space bar to continue]</b></p></div>","32","","","","","","","","","","","","","","","","","","","","","","",""
"","instruc12","42","269459","0.0-35.0-6.0","""event"",""trial"",""time""
""fullscreenenter"",""0"",""3632""
","
","
","""event"",""trial"",""time""
""fullscreenenter"",""0"",""3632""
","
","null","run_exp/static/audio/clip_14_drift.m4a","null","","","","","<div class='center'><p>How successful a pirate is at robbing ships can also change over the time spent on the island. </p><p> Ships may hear from islanders about the pirates coming and will improve their protections against the attack. This may make it harder to rob them.</p><p> Ships may also become lazy and weaken the strength of their protections. This may make it easier to rob them.</p><br><p>Things are always changing on the high seas! So, try your best to pay attention!</p><p><img src='run_exp/static/images/tutorial/contingency.png' height='500'></p></div>","","","","","","","","","","","","","","","","","",""
"","html-keyboard-response","43","272858","0.0-35.0-7.0","""event"",""trial"",""time""
""fullscreenenter"",""0"",""3632""
","
","
","""event"",""trial"",""time""
""fullscreenenter"",""0"",""3632""
","
","3395.600000023842","<div class='center'><p>How successful a pirate is at robbing ships can also change over the time spent on the island. </p><p> Ships may hear from islanders about the pirates coming and will improve their protections against the attack. This may make it harder to rob them.</p><p> Ships may also become lazy and weaken the strength of their protections. This may make it easier to rob them.</p><br><p>Things are always changing on the high seas! So, try your best to pay attention!</p><p><img src='run_exp/static/images/tutorial/contingency.png' height='500'></p><p><b>[Press the space bar to continue]</b></p></div>","32","","","","","","","","","","","","","","","","","","","","","","",""
"","instruc13","44","308059","0.0-35.0-8.0","""event"",""trial"",""time""
""fullscreenenter"",""0"",""3632""
","
","
","""event"",""trial"",""time""
""fullscreenenter"",""0"",""3632""
","
","null","run_exp/static/audio/clip_15_summary.m4a","null","","","","","<div class='center'><p>Let's go over the instructions quickly again. You have two important things to do: </p><b><p> 1. Pick the pirate who is the best at robbing ships on the current island. </p></b><b><p> 2. Remember on which island a ship was robbed.</p> </b><p>The amount of bonus money you can win depends on both.</p><p><br><p>Let’s try a practice game. The game will start by showing you the pirates. First, pick a pirate using the <b> 1, 2, 3 </b> keys on your keyboard. When you are shown a ship, try to remember which island you’re on by making up a story.</p><p>This is just a practice game, so you’re not playing for money. </p><p> Good luck! This game will be very difficult but try your best!</p></div>","","","","","","","","","","","","","","","","","",""
"","html-keyboard-response","45","309655","0.0-35.0-9.0","""event"",""trial"",""time""
""fullscreenenter"",""0"",""3632""
","
","
","""event"",""trial"",""time""
""fullscreenenter"",""0"",""3632""
","
","1593.1999999284744","<div class='center'><p>Let's go over the instructions quickly again. You have two important things to do: </p><b><p> 1. Pick the pirate who is the best at robbing ships on the current island. </p></b><b><p> 2. Remember on which island a ship was robbed.</p> </b><p>The amount of bonus money you can win depends on both.</p><p><br><p>Let’s try a practice game. The game will start by showing you the pirates. First, pick a pirate using the <b> 1, 2, 3 </b> keys on your keyboard. When you are shown a ship, try to remember which island you’re on by making up a story.</p><p>This is just a practice game, so you’re not playing for money. </p><p> Good luck! This game will be very difficult but try your best!</p><p><b>[Press the space bar to continue]</b></p></div>","32","","","","","","","","","","","","","","","","","","","","","","",""
"","do_welcome","46","313668","0.0-35.0-10.0","""event"",""trial"",""time""
""fullscreenenter"",""0"",""3632""
","
","
","""event"",""trial"",""time""
""fullscreenenter"",""0"",""3632""
","
","null","","","","","","","","null","","","","","","","","","","","","","","","","",""
"","do_trial","47","320974","0.0-35.0-11.0","""event"",""trial"",""time""
""fullscreenenter"",""0"",""3632""
","
","
","""event"",""trial"",""time""
""fullscreenenter"",""0"",""3632""
","
","2796.7999999523163","","","","","","","","51","1,0,0","","","","","","","","","","","","","","","",""
"","html-keyboard-response","48","321988","0.0-36.0-0.0","""event"",""trial"",""time""
""fullscreenenter"",""0"",""3632""
","
","
","""event"",""trial"",""time""
""fullscreenenter"",""0"",""3632""
","
","null","<p></p>","null","","","","","","","","","","","","","","","","","","","","","","",""
"","do_trial","49","328013","0.0-36.0-1.0","""event"",""trial"",""time""
""fullscreenenter"",""0"",""3632""
","
","
","""event"",""trial"",""time""
""fullscreenenter"",""0"",""3632""
","
","null","","","","","","","","null","1,1,0","","","","","","","","","","","","","","","",""
"","html-keyboard-response","50","329022","0.0-37.0-0.0","""event"",""trial"",""time""
""fullscreenenter"",""0"",""3632""
","
","
","""event"",""trial"",""time""
""fullscreenenter"",""0"",""3632""
","
","null","<p></p>","null","","","","","","","","","","","","","","","","","","","","","","",""
"","do_trial","51","334726","0.0-37.0-1.0","""event"",""trial"",""time""
""fullscreenenter"",""0"",""3632""
","
","
","""event"",""trial"",""time""
""fullscreenenter"",""0"",""3632""
","
","1180.6000000238419","","","","","","","","49","1,1,0","","","","","","","","","","","","","","","",""
"","html-keyboard-response","52","335732","0.0-38.0-0.0","""event"",""trial"",""time""
""fullscreenenter"",""0"",""3632""
","
","
","""event"",""trial"",""time""
""fullscreenenter"",""0"",""3632""
","
","null","<p></p>","null","","","","","","","","","","","","","","","","","","","","","","",""
"","do_trial","53","342202","0.0-38.0-1.0","""event"",""trial"",""time""
""fullscreenenter"",""0"",""3632""
","
","
","""event"",""trial"",""time""
""fullscreenenter"",""0"",""3632""
","
","1948.5999999046326","","","","","","","","49","1,0,1","","","","","","","","","","","","","","","",""
"","html-keyboard-response","54","343217","0.0-39.0-0.0","""event"",""trial"",""time""
""fullscreenenter"",""0"",""3632""
","
","
","""event"",""trial"",""time""
""fullscreenenter"",""0"",""3632""
","
","null","<p></p>","null","","","","","","","","","","","","","","","","","","","","","","",""
"","do_trial","55","349978","0.0-39.0-1.0","""event"",""trial"",""time""
""fullscreenenter"",""0"",""3632""
","
","
","""event"",""trial"",""time""
""fullscreenenter"",""0"",""3632""
","
","2237.2000000476837","","","","","","","","50","0,1,0","","","","","","","","","","","","","","","",""
"","html-keyboard-response","56","350986","0.0-40.0-0.0","""event"",""trial"",""time""
""fullscreenenter"",""0"",""3632""
","
","
","""event"",""trial"",""time""
""fullscreenenter"",""0"",""3632""
","
","null","<p></p>","null","","","","","","","","","","","","","","","","","","","","","","",""
"","do_trial","57","356322","0.0-40.0-1.0","""event"",""trial"",""time""
""fullscreenenter"",""0"",""3632""
","
","
","""event"",""trial"",""time""
""fullscreenenter"",""0"",""3632""
","
","819.8999999761581","","","","","","","","51","1,0,0","","","","","","","","","","","","","","","",""
"","do_bye","58","357835","0.0-41.0-0.0","""event"",""trial"",""time""
""fullscreenenter"",""0"",""3632""
","
","
","""event"",""trial"",""time""
""fullscreenenter"",""0"",""3632""
","
","null","","","","","","","","null","","","","","","","","","","","","","","","","",""
"","do_travel","59","366845","0.0-41.0-1.0","""event"",""trial"",""time""
""fullscreenenter"",""0"",""3632""
","
","
","""event"",""trial"",""time""
""fullscreenenter"",""0"",""3632""
","
","null","","","","","","","","null","","","","","","","","","","","","","","","","",""
"","do_welcome","60","370875","0.0-41.0-2.0","""event"",""trial"",""time""
""fullscreenenter"",""0"",""3632""
","
","
","""event"",""trial"",""time""
""fullscreenenter"",""0"",""3632""
","
","null","","","","","","","","null","","","","","","","","","","","","","","","","",""
"","do_trial","61","377585","0.0-41.0-3.0","""event"",""trial"",""time""
""fullscreenenter"",""0"",""3632""
","
","
","""event"",""trial"",""time""
""fullscreenenter"",""0"",""3632""
","
","2198.3000000715256","","","","","","","","50","1,0,0","","","","","","","","","","","","","","","",""
"","html-keyboard-response","62","378604","0.0-42.0-0.0","""event"",""trial"",""time""
""fullscreenenter"",""0"",""3632""
","
","
","""event"",""trial"",""time""
""fullscreenenter"",""0"",""3632""
","
","null","<p></p>","null","","","","","","","","","","","","","","","","","","","","","","",""
"","do_trial","63","384968","0.0-42.0-1.0","""event"",""trial"",""time""
""fullscreenenter"",""0"",""3632""
","
","
","""event"",""trial"",""time""
""fullscreenenter"",""0"",""3632""
","
","1847.5","","","","","","","","50","1,0,1","","","","","","","","","","","","","","","",""
"","html-keyboard-response","64","385970","0.0-43.0-0.0","""event"",""trial"",""time""
""fullscreenenter"",""0"",""3632""
","
","
","""event"",""trial"",""time""
""fullscreenenter"",""0"",""3632""
","
","null","<p></p>","null","","","","","","","","","","","","","","","","","","","","","","",""
"","do_trial","65","390867","0.0-43.0-1.0","""event"",""trial"",""time""
""fullscreenenter"",""0"",""3632""
","
","
","""event"",""trial"",""time""
""fullscreenenter"",""0"",""3632""
","
","376.2000000476837","","","","","","","","49","1,1,0","","","","","","","","","","","","","","","",""
"","html-keyboard-response","66","391879","0.0-44.0-0.0","""event"",""trial"",""time""
""fullscreenenter"",""0"",""3632""
","
","
","""event"",""trial"",""time""
""fullscreenenter"",""0"",""3632""
","
","null","<p></p>","null","","","","","","","","","","","","","","","","","","","","","","",""
"","do_trial","67","397698","0.0-44.0-1.0","""event"",""trial"",""time""
""fullscreenenter"",""0"",""3632""
","
","
","""event"",""trial"",""time""
""fullscreenenter"",""0"",""3632""
","
","1307.2999999523163","","","","","","","","51","0,0,1","","","","","","","","","","","","","","","",""
"","html-keyboard-response","68","398715","0.0-45.0-0.0","""event"",""trial"",""time""
""fullscreenenter"",""0"",""3632""
","
","
","""event"",""trial"",""time""
""fullscreenenter"",""0"",""3632""
","
","null","<p></p>","null","","","","","","","","","","","","","","","","","","","","","","",""
"","do_trial","69","404990","0.0-45.0-1.0","""event"",""trial"",""time""
""fullscreenenter"",""0"",""3632""
","
","
","""event"",""trial"",""time""
""fullscreenenter"",""0"",""3632""
","
","1757.4000000953674","","","","","","","","49","1,0,1","","","","","","","","","","","","","","","",""
"","html-keyboard-response","70","409169","0.0-46.0-0.0","""event"",""trial"",""time""
""fullscreenenter"",""0"",""3632""
","
","
","""event"",""trial"",""time""
""fullscreenenter"",""0"",""3632""
","
","4177","<div class='center'><p><img src='run_exp/static/images/tutorial/prac_best_pirate.png'  height='500'></p></div>","49","","","","","","","","","","","","","","","","","","","","","","",""
"","html-keyboard-response","71","411411","0.0-47.0-0.0","""event"",""trial"",""time""
""fullscreenenter"",""0"",""3632""
","
","
","""event"",""trial"",""time""
""fullscreenenter"",""0"",""3632""
","
","2240.899999976158","<div class='center'><p>That's correct! Red beard was the best.</p><p><b>[Press the space bar to continue]</b></p></div>","32","","","","","","","","","","","","","","","","","","","","","","",""
"","html-keyboard-response","72","414326","0.0-47.0-1.0","""event"",""trial"",""time""
""fullscreenenter"",""0"",""3632""
","
","
","""event"",""trial"",""time""
""fullscreenenter"",""0"",""3632""
","
","2913.399999976158","<div class='center'><p><img src='run_exp/static/images/tutorial/prac_source.png'  height='500'></p></div>","50","","","","","","","","","","","","","","","","","","","","","","",""
"","html-keyboard-response","73","415594","0.0-48.0-0.0","""event"",""trial"",""time""
""fullscreenenter"",""0"",""3632""
","
","
","""event"",""trial"",""time""
""fullscreenenter"",""0"",""3632""
","
","1266.0999999046326","<div class='center'><p>That's correct! You saw this ship on the cavern island.</p><p><b>[Press the space bar to continue]</b></p></div>","32","","","","","","","","","","","","","","","","","","","","","","",""
"","quiz_beginning","74","426988","0.0-48.0-1.0","""event"",""trial"",""time""
""fullscreenenter"",""0"",""3632""
","
","
","""event"",""trial"",""time""
""fullscreenenter"",""0"",""3632""
","
","null","run_exp/static/audio/clip_16_quiz_intro.m4a","null","","","","","<div class='center'><p>Good job on the practice game! Now, you will be asked some true or false questions to make sure you really understand the rules of the game.</p><p> Press <b>'1'</b> on the keyboard for true and press <b>'2'</b> for false.</p></div>","","","","","","","","","","","","","","","","","",""
"","audio-keyboard-response","75","431831","0.0-48.0-2.0","""event"",""trial"",""time""
""fullscreenenter"",""0"",""3632""
","
","
","""event"",""trial"",""time""
""fullscreenenter"",""0"",""3632""
","
","4839.700000047684","run_exp/static/audio/clip_17_q1.m4a","49","","","","","","","","","","","","","","","","","","","","","","",""
"","correct","76","434227","0.0-49.0-0.0","""event"",""trial"",""time""
""fullscreenenter"",""0"",""3632""
","
","
","""event"",""trial"",""time""
""fullscreenenter"",""0"",""3632""
","
","null","run_exp/static/audio/clip_18_correct.m4a","null","","","","","<div class='center'><p>That's correct!</p></div>","","","","","","","","","","","","","","","","","",""
"","html-keyboard-response","77","435247","0.0-49.0-1.0","""event"",""trial"",""time""
""fullscreenenter"",""0"",""3632""
","
","
","""event"",""trial"",""time""
""fullscreenenter"",""0"",""3632""
","
","1019.1999999284744","<div class='center'><p>That's correct!</p><p><b>[Press the space bar to continue]</b></p></div>","32","","","","","","","","","","","","","","","","","","","","","","",""
"","audio-keyboard-response","78","439857","0.0-49.0-2.0","""event"",""trial"",""time""
""fullscreenenter"",""0"",""3632""
","
","
","""event"",""trial"",""time""
""fullscreenenter"",""0"",""3632""
","
","4607.300000071526","run_exp/static/audio/clip_20_q2.m4a","50","","","","","","","","","","","","","","","","","","","","","","",""
"","correct","79","442248","0.0-50.0-0.0","""event"",""trial"",""time""
""fullscreenenter"",""0"",""3632""
","
","
","""event"",""trial"",""time""
""fullscreenenter"",""0"",""3632""
","
","null","run_exp/static/audio/clip_18_correct.m4a","null","","","","","<div class='center'><p>That's correct!</p></div>","","","","","","","","","","","","","","","","","",""
"","html-keyboard-response","80","442937","0.0-50.0-1.0","""event"",""trial"",""time""
""fullscreenenter"",""0"",""3632""
","
","
","""event"",""trial"",""time""
""fullscreenenter"",""0"",""3632""
","
","687.8000000715256","<div class='center'><p>That's correct!</p><p><b>[Press the space bar to continue]</b></p></div>","32","","","","","","","","","","","","","","","","","","","","","","",""
"","audio-keyboard-response","81","446428","0.0-50.0-2.0","""event"",""trial"",""time""
""fullscreenenter"",""0"",""3632""
","
","
","""event"",""trial"",""time""
""fullscreenenter"",""0"",""3632""
","
","3489.100000023842","run_exp/static/audio/clip_22_q3.m4a","50","","","","","","","","","","","","","","","","","","","","","","",""
"","correct","82","448828","0.0-51.0-0.0","""event"",""trial"",""time""
""fullscreenenter"",""0"",""3632""
","
","
","""event"",""trial"",""time""
""fullscreenenter"",""0"",""3632""
","
","null","run_exp/static/audio/clip_18_correct.m4a","null","","","","","<div class='center'><p>That's correct!</p></div>","","","","","","","","","","","","","","","","","",""
"","html-keyboard-response","83","449120","0.0-51.0-1.0","""event"",""trial"",""time""
""fullscreenenter"",""0"",""3632""
","
","
","""event"",""trial"",""time""
""fullscreenenter"",""0"",""3632""
","
","290.39999997615814","<div class='center'><p>That's correct!</p><p><b>[Press the space bar to continue]</b></p></div>","32","","","","","","","","","","","","","","","","","","","","","","",""
"","audio-keyboard-response","84","451236","0.0-51.0-2.0","""event"",""trial"",""time""
""fullscreenenter"",""0"",""3632""
","
","
","""event"",""trial"",""time""
""fullscreenenter"",""0"",""3632""
","
","2121.7000000476837","run_exp/static/audio/clip_24_q4.m4a","49","","","","","","","","","","","","","","","","","","","","","","",""
"","correct","85","453662","0.0-52.0-0.0","""event"",""trial"",""time""
""fullscreenenter"",""0"",""3632""
","
","
","""event"",""trial"",""time""
""fullscreenenter"",""0"",""3632""
","
","null","run_exp/static/audio/clip_18_correct.m4a","null","","","","","<div class='center'><p>That's correct!</p></div>","","","","","","","","","","","","","","","","","",""
"","html-keyboard-response","86","453991","0.0-52.0-1.0","""event"",""trial"",""time""
""fullscreenenter"",""0"",""3632""
","
","
","""event"",""trial"",""time""
""fullscreenenter"",""0"",""3632""
","
","327.39999997615814","<div class='center'><p>That's correct!</p><p><b>[Press the space bar to continue]</b></p></div>","32","","","","","","","","","","","","","","","","","","","","","","",""
"","q_all_corr","87","462482","0.0-53.0-0.0","""event"",""trial"",""time""
""fullscreenenter"",""0"",""3632""
","
","
","""event"",""trial"",""time""
""fullscreenenter"",""0"",""3632""
","
","null","run_exp/static/audio/clip_27_quiz_all_correct.m4a","null","","","","","<div class='center'><p>Good job! You’re now ready to move on to the real game! Remember this game will be difficult but don't get discouraged and try your best!</p></div>","","","","","","","","","","","","","","","","","",""
"","html-keyboard-response","88","463045","0.0-53.0-1.0","""event"",""trial"",""time""
""fullscreenenter"",""0"",""3632""
","
","
","""event"",""trial"",""time""
""fullscreenenter"",""0"",""3632""
","
","561.2000000476837","<div class='center'><p>Good job! You’re now ready to move on to the real game! Remember this game will be difficult but don't get discouraged and try your best!</p><p><b>[Press the space bar to continue]</b></p></div>","32","","","","","","","","","","","","","","","","","","","","","","",""
"","do_welcome","89","467060","0.0-54.0-0.0","""event"",""trial"",""time""
""fullscreenenter"",""0"",""3632""
","
","
","""event"",""trial"",""time""
""fullscreenenter"",""0"",""3632""
","
","null","","","","","","","","null","","","","","","","","","","","","","","","","",""
"","do_trial","90","473920","0.0-55.0-0.0","""event"",""trial"",""time""
""fullscreenenter"",""0"",""3632""
","
","
","""event"",""trial"",""time""
""fullscreenenter"",""0"",""3632""
","
","2307.399999976158","","","","","","","","51","1,0,0","0","coast","0","probe-163","0.6","0.3","0.1","0","","","","","","","",""
"","html-keyboard-response","91","474930","0.0-55.0-1.0","""event"",""trial"",""time""
""fullscreenenter"",""0"",""3632""
","
","
","""event"",""trial"",""time""
""fullscreenenter"",""0"",""3632""
","
","null","<p></p>","null","","","","","","","","","","","","","","","","","","","","","","",""
"","do_trial","92","480927","0.0-56.0-0.0","""event"",""trial"",""time""
""fullscreenenter"",""0"",""3632""
","
","
","""event"",""trial"",""time""
""fullscreenenter"",""0"",""3632""
","
","1444.2000000476837","","","","","","","","49","1,1,0","0","coast","1","probe-178","0.6274461388461892","0.31982353914506967","0.06130940633147431","1","","","","","","","",""
"","html-keyboard-response","93","481938","0.0-56.0-1.0","""event"",""trial"",""time""
""fullscreenenter"",""0"",""3632""
","
","
","""event"",""trial"",""time""
""fullscreenenter"",""0"",""3632""
","
","null","<p></p>","null","","","","","","","","","","","","","","","","","","","","","","",""
"","do_trial","94","487716","0.0-57.0-0.0","""event"",""trial"",""time""
""fullscreenenter"",""0"",""3632""
","
","
","""event"",""trial"",""time""
""fullscreenenter"",""0"",""3632""
","
","1236.5","","","","","","","","49","0,0,0","0","coast","2","probe-146","0.7336990554699446","0.17980414472790707","0.05359417468293474","0","","","","","","","",""
"","html-keyboard-response","95","488730","0.0-57.0-1.0","""event"",""trial"",""time""
""fullscreenenter"",""0"",""3632""
","
","
","""event"",""trial"",""time""
""fullscreenenter"",""0"",""3632""
","
","null","<p></p>","null","","","","","","","","","","","","","","","","","","","","","","",""
"","do_trial","96","495772","0.0-58.0-0.0","""event"",""trial"",""time""
""fullscreenenter"",""0"",""3632""
","
","
","""event"",""trial"",""time""
""fullscreenenter"",""0"",""3632""
","
","2496.5","","","","","","","","50","1,0,0","0","coast","3","probe-201","0.7402250364011269","0.227919621741221","0.11596135575555977","0","","","","","","","",""
"","html-keyboard-response","97","496780","0.0-58.0-1.0","""event"",""trial"",""time""
""fullscreenenter"",""0"",""3632""
","
","
","""event"",""trial"",""time""
""fullscreenenter"",""0"",""3632""
","
","null","<p></p>","null","","","","","","","","","","","","","","","","","","","","","","",""
"","do_trial","98","504267","0.0-59.0-0.0","""event"",""trial"",""time""
""fullscreenenter"",""0"",""3632""
","
","
","""event"",""trial"",""time""
""fullscreenenter"",""0"",""3632""
","
","2943.899999976158","","","","","","","","51","1,0,0","0","coast","4","probe-27","0.8718032343864949","0.439148874407969","0.08157323922299842","0","","","","","","","",""
"","html-keyboard-response","99","505275","0.0-59.0-1.0","""event"",""trial"",""time""
""fullscreenenter"",""0"",""3632""
","
","
","""event"",""trial"",""time""
""fullscreenenter"",""0"",""3632""
","
","null","<p></p>","null","","","","","","","","","","","","","","","","","","","","","","",""
"","do_trial","100","512579","0.0-60.0-0.0","""event"",""trial"",""time""
""fullscreenenter"",""0"",""3632""
","
","
","""event"",""trial"",""time""
""fullscreenenter"",""0"",""3632""
","
","2752.6999999284744","","","","","","","","49","1,0,0","0","coast","5","probe-185","0.8325647669443652","0.4244185521846189","0.11937895937556599","1","","","","","","","",""
"","html-keyboard-response","101","513591","0.0-60.0-1.0","""event"",""trial"",""time""
""fullscreenenter"",""0"",""3632""
","
","
","""event"",""trial"",""time""
""fullscreenenter"",""0"",""3632""
","
","null","<p></p>","null","","","","","","","","","","","","","","","","","","","","","","",""
"","do_trial","102","519316","0.0-61.0-0.0","""event"",""trial"",""time""
""fullscreenenter"",""0"",""3632""
","
","
","""event"",""trial"",""time""
""fullscreenenter"",""0"",""3632""
","
","1180","","","","","","","","49","1,1,0","0","coast","6","probe-106","0.7808058799027912","0.2653559549478179","0.09382509655271559","1","","","","","","","",""
"","html-keyboard-response","103","520319","0.0-61.0-1.0","""event"",""trial"",""time""
""fullscreenenter"",""0"",""3632""
","
","
","""event"",""trial"",""time""
""fullscreenenter"",""0"",""3632""
","
","null","<p></p>","null","","","","","","","","","","","","","","","","","","","","","","",""
"","do_trial","104","527685","0.0-62.0-0.0","""event"",""trial"",""time""
""fullscreenenter"",""0"",""3632""
","
","
","""event"",""trial"",""time""
""fullscreenenter"",""0"",""3632""
","
","2808.7999999523163","","","","","","","","50","0,0,0","0","coast","7","probe-18","0.6020787831539969","0.18738398543977255","0.06305962553298816","0","","","","","","","",""
"","html-keyboard-response","105","528695","0.0-62.0-1.0","""event"",""trial"",""time""
""fullscreenenter"",""0"",""3632""
","
","
","""event"",""trial"",""time""
""fullscreenenter"",""0"",""3632""
","
","null","<p></p>","null","","","","","","","","","","","","","","","","","","","","","","",""
"","do_trial","106","533915","0.0-63.0-0.0","""event"",""trial"",""time""
""fullscreenenter"",""0"",""3632""
","
","
","""event"",""trial"",""time""
""fullscreenenter"",""0"",""3632""
","
","680.6000000238419","","","","","","","","49","0,1,0","0","coast","8","probe-199","0.6733872429524942","0.25436778293469714","0.11393409606322318","0","","","","","","","",""
"","html-keyboard-response","107","534921","0.0-63.0-1.0","""event"",""trial"",""time""
""fullscreenenter"",""0"",""3632""
","
","
","""event"",""trial"",""time""
""fullscreenenter"",""0"",""3632""
","
","null","<p></p>","null","","","","","","","","","","","","","","","","","","","","","","",""
"","do_trial","108","540256","0.0-64.0-0.0","""event"",""trial"",""time""
""fullscreenenter"",""0"",""3632""
","
","
","""event"",""trial"",""time""
""fullscreenenter"",""0"",""3632""
","
","794.2000000476837","","","","","","","","51","1,0,0","0","coast","9","probe-151","0.7085771059243804","0.19969460613309056","0.2833679340286819","0","","","","","","","",""
"","html-keyboard-response","109","541268","0.0-64.0-1.0","""event"",""trial"",""time""
""fullscreenenter"",""0"",""3632""
","
","
","""event"",""trial"",""time""
""fullscreenenter"",""0"",""3632""
","
","null","<p></p>","null","","","","","","","","","","","","","","","","","","","","","","",""
"","do_trial","110","546208","0.0-65.0-0.0","""event"",""trial"",""time""
""fullscreenenter"",""0"",""3632""
","
","
","""event"",""trial"",""time""
""fullscreenenter"",""0"",""3632""
","
","398.7999999523163","","","","","","","","49","1,0,0","0","coast","10","probe-71","0.609174816416408","0.12626278482279366","0.11776429581351497","1","","","","","","","",""
"","html-keyboard-response","111","547219","0.0-65.0-1.0","""event"",""trial"",""time""
""fullscreenenter"",""0"",""3632""
","
","
","""event"",""trial"",""time""
""fullscreenenter"",""0"",""3632""
","
","null","<p></p>","null","","","","","","","","","","","","","","","","","","","","","","",""
"","do_trial","112","554038","0.0-66.0-0.0","""event"",""trial"",""time""
""fullscreenenter"",""0"",""3632""
","
","
","""event"",""trial"",""time""
""fullscreenenter"",""0"",""3632""
","
","2268.100000023842","","","","","","","","50","1,0,0","0","coast","11","probe-190","0.6130120733113154","0.1799995924458485","0.06169958120231156","0","","","","","","","",""
"","html-keyboard-response","113","555043","0.0-66.0-1.0","""event"",""trial"",""time""
""fullscreenenter"",""0"",""3632""
","
","
","""event"",""trial"",""time""
""fullscreenenter"",""0"",""3632""
","
","null","<p></p>","null","","","","","","","","","","","","","","","","","","","","","","",""
"","do_trial","114","560095","0.0-67.0-0.0","""event"",""trial"",""time""
""fullscreenenter"",""0"",""3632""
","
","
","""event"",""trial"",""time""
""fullscreenenter"",""0"",""3632""
","
","500.40000009536743","","","","","","","","49","1,0,0","0","coast","12","probe-45","0.5796400554441532","0.3763152203941719","0.11906602424709099","1","","","","","","","",""
"","html-keyboard-response","115","561103","0.0-67.0-1.0","""event"",""trial"",""time""
""fullscreenenter"",""0"",""3632""
","
","
","""event"",""trial"",""time""
""fullscreenenter"",""0"",""3632""
","
","null","<p></p>","null","","","","","","","","","","","","","","","","","","","","","","",""
"","do_trial","116","566073","0.0-68.0-0.0","""event"",""trial"",""time""
""fullscreenenter"",""0"",""3632""
","
","
","""event"",""trial"",""time""
""fullscreenenter"",""0"",""3632""
","
","431.5","","","","","","","","49","0,1,0","0","coast","13","probe-192","0.610737370637266","0.2911701732242023","0.2023763942054253","0","","","","","","","",""
"","html-keyboard-response","117","567088","0.0-68.0-1.0","""event"",""trial"",""time""
""fullscreenenter"",""0"",""3632""
","
","
","""event"",""trial"",""time""
""fullscreenenter"",""0"",""3632""
","
","null","<p></p>","null","","","","","","","","","","","","","","","","","","","","","","",""
"","do_trial","118","572061","0.0-69.0-0.0","""event"",""trial"",""time""
""fullscreenenter"",""0"",""3632""
","
","
","""event"",""trial"",""time""
""fullscreenenter"",""0"",""3632""
","
","420.39999997615814","","","","","","","","49","1,0,1","0","coast","14","probe-02","0.5735350953265542","0.3506361797968511","0.09204976118769327","1","","","","","","","",""
"","html-keyboard-response","119","573073","0.0-69.0-1.0","""event"",""trial"",""time""
""fullscreenenter"",""0"",""3632""
","
","
","""event"",""trial"",""time""
""fullscreenenter"",""0"",""3632""
","
","null","<p></p>","null","","","","","","","","","","","","","","","","","","","","","","",""
"","do_trial","120","578877","0.0-70.0-0.0","""event"",""trial"",""time""
""fullscreenenter"",""0"",""3632""
","
","
","""event"",""trial"",""time""
""fullscreenenter"",""0"",""3632""
","
","1258.6999999284744","","","","","","","","49","1,0,1","0","coast","15","probe-218","0.5478673312814072","0.4191316977247498","0.09004592775291617","1","","","","","","","",""
"","html-keyboard-response","121","579883","0.0-70.0-1.0","""event"",""trial"",""time""
""fullscreenenter"",""0"",""3632""
","
","
","""event"",""trial"",""time""
""fullscreenenter"",""0"",""3632""
","
","null","<p></p>","null","","","","","","","","","","","","","","","","","","","","","","",""
"","do_trial","122","584767","0.0-71.0-0.0","""event"",""trial"",""time""
""fullscreenenter"",""0"",""3632""
","
","
","""event"",""trial"",""time""
""fullscreenenter"",""0"",""3632""
","
","332.7999999523163","","","","","","","","49","1,0,0","0","coast","16","probe-99","0.5444381001656499","0.3895441863814106","0.25092367291987244","1","","","","","","","",""
"","html-keyboard-response","123","585776","0.0-71.0-1.0","""event"",""trial"",""time""
""fullscreenenter"",""0"",""3632""
","
","
","""event"",""trial"",""time""
""fullscreenenter"",""0"",""3632""
","
","null","<p></p>","null","","","","","","","","","","","","","","","","","","","","","","",""
"","do_trial","124","590654","0.0-72.0-0.0","""event"",""trial"",""time""
""fullscreenenter"",""0"",""3632""
","
","
","""event"",""trial"",""time""
""fullscreenenter"",""0"",""3632""
","
","331.59999990463257","","","","","","","","49","1,0,0","0","coast","17","probe-143","0.6821349622252814","0.28567807996729017","0.1987042415558088","1","","","","","","","",""
"","html-keyboard-response","125","591664","0.0-72.0-1.0","""event"",""trial"",""time""
""fullscreenenter"",""0"",""3632""
","
","
","""event"",""trial"",""time""
""fullscreenenter"",""0"",""3632""
","
","null","<p></p>","null","","","","","","","","","","","","","","","","","","","","","","",""
"","do_trial","126","596267","0.0-73.0-0.0","""event"",""trial"",""time""
""fullscreenenter"",""0"",""3632""
","
","
","""event"",""trial"",""time""
""fullscreenenter"",""0"",""3632""
","
","65","","","","","","","","49","0,0,1","0","coast","18","probe-144","0.6079184835820545","0.2495989454444687","0.140165927602432","0","","","","","","","",""
"","html-keyboard-response","127","597281","0.0-73.0-1.0","""event"",""trial"",""time""
""fullscreenenter"",""0"",""3632""
","
","
","""event"",""trial"",""time""
""fullscreenenter"",""0"",""3632""
","
","null","<p></p>","null","","","","","","","","","","","","","","","","","","","","","","",""
"","do_trial","128","602782","0.0-74.0-0.0","""event"",""trial"",""time""
""fullscreenenter"",""0"",""3632""
","
","
","""event"",""trial"",""time""
""fullscreenenter"",""0"",""3632""
","
","960.8999999761581","","","","","","","","49","0,0,0","0","coast","19","probe-162","0.6104862681134722","0.34683772039645144","0.14958440651492827","0","","","","","","","",""
"","html-keyboard-response","129","603800","0.0-74.0-1.0","""event"",""trial"",""time""
""fullscreenenter"",""0"",""3632""
","
","
","""event"",""trial"",""time""
""fullscreenenter"",""0"",""3632""
","
","null","<p></p>","null","","","","","","","","","","","","","","","","","","","","","","",""
"","do_trial","130","609553","0.0-75.0-0.0","""event"",""trial"",""time""
""fullscreenenter"",""0"",""3632""
","
","
","""event"",""trial"",""time""
""fullscreenenter"",""0"",""3632""
","
","1203.8000000715256","","","","","","","","49","1,1,0","0","coast","20","probe-225","0.6072421123749973","0.4843278304772551","0.0776342307973119","1","","","","","","","",""
"","html-keyboard-response","131","610568","0.0-75.0-1.0","""event"",""trial"",""time""
""fullscreenenter"",""0"",""3632""
","
","
","""event"",""trial"",""time""
""fullscreenenter"",""0"",""3632""
","
","null","<p></p>","null","","","","","","","","","","","","","","","","","","","","","","",""
"","do_trial","132","615425","0.0-76.0-0.0","""event"",""trial"",""time""
""fullscreenenter"",""0"",""3632""
","
","
","""event"",""trial"",""time""
""fullscreenenter"",""0"",""3632""
","
","305.89999997615814","","","","","","","","49","1,1,0","0","coast","21","probe-174","0.507157199692661","0.4209136971522288","0.13753752525272714","1","","","","","","","",""
"","html-keyboard-response","133","616437","0.0-76.0-1.0","""event"",""trial"",""time""
""fullscreenenter"",""0"",""3632""
","
","
","""event"",""trial"",""time""
""fullscreenenter"",""0"",""3632""
","
","null","<p></p>","null","","","","","","","","","","","","","","","","","","","","","","",""
"","do_trial","134","621953","0.0-77.0-0.0","""event"",""trial"",""time""
""fullscreenenter"",""0"",""3632""
","
","
","""event"",""trial"",""time""
""fullscreenenter"",""0"",""3632""
","
","964.6000000238419","","","","","","","","49","0,0,0","0","coast","22","probe-96","0.58438910351565","0.4579395068743483","0.15212442557083689","0","","","","","","","",""
"","html-keyboard-response","135","622955","0.0-77.0-1.0","""event"",""trial"",""time""
""fullscreenenter"",""0"",""3632""
","
","
","""event"",""trial"",""time""
""fullscreenenter"",""0"",""3632""
","
","null","<p></p>","null","","","","","","","","","","","","","","","","","","","","","","",""
"","do_trial","136","627988","0.0-78.0-0.0","""event"",""trial"",""time""
""fullscreenenter"",""0"",""3632""
","
","
","""event"",""trial"",""time""
""fullscreenenter"",""0"",""3632""
","
","486","","","","","","","","49","0,0,1","0","coast","23","probe-60","0.5266311234983536","0.512753403995785","0.23249154622744392","0","","","","","","","",""
"","html-keyboard-response","137","629006","0.0-78.0-1.0","""event"",""trial"",""time""
""fullscreenenter"",""0"",""3632""
","
","
","""event"",""trial"",""time""
""fullscreenenter"",""0"",""3632""
","
","null","<p></p>","null","","","","","","","","","","","","","","","","","","","","","","",""
"","do_trial","138","633949","0.0-79.0-0.0","""event"",""trial"",""time""
""fullscreenenter"",""0"",""3632""
","
","
","""event"",""trial"",""time""
""fullscreenenter"",""0"",""3632""
","
","395.89999997615814","","","","","","","","49","0,1,0","0","coast","24","probe-188","0.5867827593327195","0.35641419989655915","0.24593921140679925","0","","","","","","","",""
"","html-keyboard-response","139","634963","0.0-79.0-1.0","""event"",""trial"",""time""
""fullscreenenter"",""0"",""3632""
","
","
","""event"",""trial"",""time""
""fullscreenenter"",""0"",""3632""
","
","null","<p></p>","null","","","","","","","","","","","","","","","","","","","","","","",""
"","do_trial","140","641050","0.0-80.0-0.0","""event"",""trial"",""time""
""fullscreenenter"",""0"",""3632""
","
","
","""event"",""trial"",""time""
""fullscreenenter"",""0"",""3632""
","
","1545.3999999761581","","","","","","","","49","0,0,0","0","coast","25","probe-54","0.6974442729898074","0.26895012260886175","0.1889207870820325","0","","","","","","","",""
"","html-keyboard-response","141","642059","0.0-80.0-1.0","""event"",""trial"",""time""
""fullscreenenter"",""0"",""3632""
","
","
","""event"",""trial"",""time""
""fullscreenenter"",""0"",""3632""
","
","null","<p></p>","null","","","","","","","","","","","","","","","","","","","","","","",""
"","do_trial","142","647494","0.0-81.0-0.0","""event"",""trial"",""time""
""fullscreenenter"",""0"",""3632""
","
","
","""event"",""trial"",""time""
""fullscreenenter"",""0"",""3632""
","
","896.3999999761581","","","","","","","","51","0,0,0","0","coast","26","probe-10","0.6678927188005287","0.31249637865577284","0.2231100450757","0","","","","","","","",""
"","html-keyboard-response","143","648509","0.0-81.0-1.0","""event"",""trial"",""time""
""fullscreenenter"",""0"",""3632""
","
","
","""event"",""trial"",""time""
""fullscreenenter"",""0"",""3632""
","
","null","<p></p>","null","","","","","","","","","","","","","","","","","","","","","","",""
"","do_trial","144","653196","0.0-82.0-0.0","""event"",""trial"",""time""
""fullscreenenter"",""0"",""3632""
","
","
","""event"",""trial"",""time""
""fullscreenenter"",""0"",""3632""
","
","137.30000007152557","","","","","","","","49","1,1,0","0","coast","27","probe-206","0.7481497526774571","0.37691971089153875","0.13124011056698318","1","","","","","","","",""
"","html-keyboard-response","145","654211","0.0-82.0-1.0","""event"",""trial"",""time""
""fullscreenenter"",""0"",""3632""
","
","
","""event"",""trial"",""time""
""fullscreenenter"",""0"",""3632""
","
","null","<p></p>","null","","","","","","","","","","","","","","","","","","","","","","",""
"","do_trial","146","659153","0.0-83.0-0.0","""event"",""trial"",""time""
""fullscreenenter"",""0"",""3632""
","
","
","""event"",""trial"",""time""
""fullscreenenter"",""0"",""3632""
","
","403.2999999523163","","","","","","","","49","1,0,0","0","coast","28","probe-03","0.8214940545319968","0.4181712145800094","0.07235463909073664","1","","","","","","","",""
"","html-keyboard-response","147","660169","0.0-83.0-1.0","""event"",""trial"",""time""
""fullscreenenter"",""0"",""3632""
","
","
","""event"",""trial"",""time""
""fullscreenenter"",""0"",""3632""
","
","null","<p></p>","null","","","","","","","","","","","","","","","","","","","","","","",""
"","do_trial","148","665088","0.0-84.0-0.0","""event"",""trial"",""time""
""fullscreenenter"",""0"",""3632""
","
","
","""event"",""trial"",""time""
""fullscreenenter"",""0"",""3632""
","
","378.6999999284744","","","","","","","","49","1,0,0","0","coast","29","probe-110","0.7718532792690376","0.49712771874826034","0.1627824994834642","1","","","","","","","",""
"","html-keyboard-response","149","666097","0.0-84.0-1.0","""event"",""trial"",""time""
""fullscreenenter"",""0"",""3632""
","
","
","""event"",""trial"",""time""
""fullscreenenter"",""0"",""3632""
","
","null","<p></p>","null","","","","","","","","","","","","","","","","","","","","","","",""
"","do_bye","150","667616","0.0-85.0-0.0","""event"",""trial"",""time""
""fullscreenenter"",""0"",""3632""
","
","
","""event"",""trial"",""time""
""fullscreenenter"",""0"",""3632""
","
","null","","","","","","","","null","","","","","","","","","","","","","","","","",""
"","break","151","667778","0.0-85.0-1.0","""event"",""trial"",""time""
""fullscreenenter"",""0"",""3632""
","
","
","""event"",""trial"",""time""
""fullscreenenter"",""0"",""3632""
","
","160.19999992847443","<div class='center'><p>Time to take a quick break! You have 2 minutes to rest, but you can move on sooner if you'd like.</p><p> Press the <b>space bar</b> to continue.</p></div>","32","","","","","","","","","","","","","","","","","","","","","","",""
"","do_travel","152","676794","0.0-86.0-0.0","""event"",""trial"",""time""
""fullscreenenter"",""0"",""3632""
","
","
","""event"",""trial"",""time""
""fullscreenenter"",""0"",""3632""
","
","null","","","","","","","","null","","","","","","","","","","","","","","","","",""
"","do_welcome","153","680814","0.0-86.0-1.0","""event"",""trial"",""time""
""fullscreenenter"",""0"",""3632""
","
","
","""event"",""trial"",""time""
""fullscreenenter"",""0"",""3632""
","
","null","","","","","","","","null","","","","","","","","","","","","","","","","",""
"","do_trial","154","686874","0.0-87.0-0.0","""event"",""trial"",""time""
""fullscreenenter"",""0"",""3632""
","
","
","""event"",""trial"",""time""
""fullscreenenter"",""0"",""3632""
","
","null","","","","","","","","null","1,0,0","1","forest","30","probe-104","1","0.40561604959543696","0.09711655155175596","","","","","","","","",""
"","html-keyboard-response","155","687890","0.0-87.0-1.0","""event"",""trial"",""time""
""fullscreenenter"",""0"",""3632""
","
","
","""event"",""trial"",""time""
""fullscreenenter"",""0"",""3632""
","
","null","<p></p>","null","","","","","","","","","","","","","","","","","","","","","","",""
"","do_trial","156","693019","0.0-88.0-0.0","""event"",""trial"",""time""
""fullscreenenter"",""0"",""3632""
","
","
","""event"",""trial"",""time""
""fullscreenenter"",""0"",""3632""
","
","582.7999999523163","","","","","","","","51","1,1,0","1","forest","31","probe-122","1","0.3904288340564043","0.05930707225098706","0","","","","","","","",""
"","html-keyboard-response","157","694029","0.0-88.0-1.0","""event"",""trial"",""time""
""fullscreenenter"",""0"",""3632""
","
","
","""event"",""trial"",""time""
""fullscreenenter"",""0"",""3632""
","
","null","<p></p>","null","","","","","","","","","","","","","","","","","","","","","","",""
"","do_trial","158","698623","0.0-89.0-0.0","""event"",""trial"",""time""
""fullscreenenter"",""0"",""3632""
","
","
","""event"",""trial"",""time""
""fullscreenenter"",""0"",""3632""
","
","20.200000047683716","","","","","","","","51","1,0,0","1","forest","32","probe-28","1","0.22843042516233925","0.11813600970385789","0","","","","","","","",""
"","html-keyboard-response","159","699639","0.0-89.0-1.0","""event"",""trial"",""time""
""fullscreenenter"",""0"",""3632""
","
","
","""event"",""trial"",""time""
""fullscreenenter"",""0"",""3632""
","
","null","<p></p>","null","","","","","","","","","","","","","","","","","","","","","","",""
"","do_trial","160","704509","0.0-90.0-0.0","""event"",""trial"",""time""
""fullscreenenter"",""0"",""3632""
","
","
","""event"",""trial"",""time""
""fullscreenenter"",""0"",""3632""
","
","328.8000000715256","","","","","","","","51","1,0,0","1","forest","33","probe-82","0.9199911039689805","0.26170790776774144","0.07842768868830297","0","","","","","","","",""
"","html-keyboard-response","161","705514","0.0-90.0-1.0","""event"",""trial"",""time""
""fullscreenenter"",""0"",""3632""
","
","
","""event"",""trial"",""time""
""fullscreenenter"",""0"",""3632""
","
","null","<p></p>","null","","","","","","","","","","","","","","","","","","","","","","",""
"","do_trial","162","711050","0.0-91.0-0.0","""event"",""trial"",""time""
""fullscreenenter"",""0"",""3632""
","
","
","""event"",""trial"",""time""
""fullscreenenter"",""0"",""3632""
","
","983.3999999761581","","","","","","","","50","0,0,0","1","forest","34","probe-175","0.6909548313978179","0.32386824507406947","0.11870430441807446","0","","","","","","","",""
"","html-keyboard-response","163","712060","0.0-91.0-1.0","""event"",""trial"",""time""
""fullscreenenter"",""0"",""3632""
","
","
","""event"",""trial"",""time""
""fullscreenenter"",""0"",""3632""
","
","null","<p></p>","null","","","","","","","","","","","","","","","","","","","","","","",""
"","do_trial","164","716826","0.0-92.0-0.0","""event"",""trial"",""time""
""fullscreenenter"",""0"",""3632""
","
","
","""event"",""trial"",""time""
""fullscreenenter"",""0"",""3632""
","
","223.70000004768372","","","","","","","","51","1,0,0","1","forest","35","probe-72","0.6640279762698654","0.17600445846127621","0.07528385553228863","0","","","","","","","",""
"","html-keyboard-response","165","717841","0.0-92.0-1.0","""event"",""trial"",""time""
""fullscreenenter"",""0"",""3632""
","
","
","""event"",""trial"",""time""
""fullscreenenter"",""0"",""3632""
","
","null","<p></p>","null","","","","","","","","","","","","","","","","","","","","","","",""
"","do_trial","166","723830","0.0-93.0-0.0","""event"",""trial"",""time""
""fullscreenenter"",""0"",""3632""
","
","
","""event"",""trial"",""time""
""fullscreenenter"",""0"",""3632""
","
","1450.7000000476837","","","","","","","","49","0,0,0","1","forest","36","probe-17","0.5968403245557157","0.16637300140231112","0.1839993174734151","0","","","","","","","",""
"","html-keyboard-response","167","724837","0.0-93.0-1.0","""event"",""trial"",""time""
""fullscreenenter"",""0"",""3632""
","
","
","""event"",""trial"",""time""
""fullscreenenter"",""0"",""3632""
","
","null","<p></p>","null","","","","","","","","","","","","","","","","","","","","","","",""
"","do_trial","168","730654","0.0-94.0-0.0","""event"",""trial"",""time""
""fullscreenenter"",""0"",""3632""
","
","
","""event"",""trial"",""time""
""fullscreenenter"",""0"",""3632""
","
","1268","","","","","","","","51","1,0,0","1","forest","37","probe-176","0.505872986432374","0.3002855174327723","0.05850434659661323","0","","","","","","","",""
"","html-keyboard-response","169","731664","0.0-94.0-1.0","""event"",""trial"",""time""
""fullscreenenter"",""0"",""3632""
","
","
","""event"",""trial"",""time""
""fullscreenenter"",""0"",""3632""
","
","null","<p></p>","null","","","","","","","","","","","","","","","","","","","","","","",""
"","do_trial","170","736205","0.0-95.0-0.0","""event"",""trial"",""time""
""fullscreenenter"",""0"",""3632""
","
","
","""event"",""trial"",""time""
""fullscreenenter"",""0"",""3632""
","
","0.19999992847442627","","","","","","","","51","0,0,0","1","forest","38","probe-44","0.5842966255939135","0.44249015143157555","0.05676558662294104","0","","","","","","","",""
"","html-keyboard-response","171","737215","0.0-95.0-1.0","""event"",""trial"",""time""
""fullscreenenter"",""0"",""3632""
","
","
","""event"",""trial"",""time""
""fullscreenenter"",""0"",""3632""
","
","null","<p></p>","null","","","","","","","","","","","","","","","","","","","","","","",""
"","do_trial","172","742084","0.0-96.0-0.0","""event"",""trial"",""time""
""fullscreenenter"",""0"",""3632""
","
","
","""event"",""trial"",""time""
""fullscreenenter"",""0"",""3632""
","
","331.7000000476837","","","","","","","","51","1,0,0","1","forest","39","probe-53","0.5567186638409067","0.4720542342620357","0.10760782703899985","0","","","","","","","",""
"","html-keyboard-response","173","743099","0.0-96.0-1.0","""event"",""trial"",""time""
""fullscreenenter"",""0"",""3632""
","
","
","""event"",""trial"",""time""
""fullscreenenter"",""0"",""3632""
","
","null","<p></p>","null","","","","","","","","","","","","","","","","","","","","","","",""
"","do_trial","174","748071","0.0-97.0-0.0","""event"",""trial"",""time""
""fullscreenenter"",""0"",""3632""
","
","
","""event"",""trial"",""time""
""fullscreenenter"",""0"",""3632""
","
","412","","","","","","","","51","1,0,1","1","forest","40","probe-01","0.5117668323457171","0.39923465847191636","0.17008341401888843","1","","","","","","","",""
"","html-keyboard-response","175","749084","0.0-97.0-1.0","""event"",""trial"",""time""
""fullscreenenter"",""0"",""3632""
","
","
","""event"",""trial"",""time""
""fullscreenenter"",""0"",""3632""
","
","null","<p></p>","null","","","","","","","","","","","","","","","","","","","","","","",""
"","do_trial","176","754270","0.0-98.0-0.0","""event"",""trial"",""time""
""fullscreenenter"",""0"",""3632""
","
","
","""event"",""trial"",""time""
""fullscreenenter"",""0"",""3632""
","
","633.6000000238419","","","","","","","","51","0,0,0","1","forest","41","probe-67","0.4309044263160856","0.3660998556054604","0.09941937283787627","0","","","","","","","",""
"","html-keyboard-response","177","755277","0.0-98.0-1.0","""event"",""trial"",""time""
""fullscreenenter"",""0"",""3632""
","
","
","""event"",""trial"",""time""
""fullscreenenter"",""0"",""3632""
","
","null","<p></p>","null","","","","","","","","","","","","","","","","","","","","","","",""
"","do_trial","178","760191","0.0-99.0-0.0","""event"",""trial"",""time""
""fullscreenenter"",""0"",""3632""
","
","
","""event"",""trial"",""time""
""fullscreenenter"",""0"",""3632""
","
","350.39999997615814","","","","","","","","51","0,0,1","1","forest","42","probe-211","0.17137056087681493","0.4525390856111314","0.1497925918264005","1","","","","","","","",""
"","html-keyboard-response","179","761204","0.0-99.0-1.0","""event"",""trial"",""time""
""fullscreenenter"",""0"",""3632""
","
","
","""event"",""trial"",""time""
""fullscreenenter"",""0"",""3632""
","
","null","<p></p>","null","","","","","","","","","","","","","","","","","","","","","","",""
"","do_trial","180","766097","0.0-100.0-0.0","""event"",""trial"",""time""
""fullscreenenter"",""0"",""3632""
","
","
","""event"",""trial"",""time""
""fullscreenenter"",""0"",""3632""
","
","350.7000000476837","","","","","","","","51","0,1,0","1","forest","43","probe-173","0.28710418496403206","0.5068098778538868","0.14715189151119798","0","","","","","","","",""
"","html-keyboard-response","181","767105","0.0-100.0-1.0","""event"",""trial"",""time""
""fullscreenenter"",""0"",""3632""
","
","
","""event"",""trial"",""time""
""fullscreenenter"",""0"",""3632""
","
","null","<p></p>","null","","","","","","","","","","","","","","","","","","","","","","",""
"","do_trial","182","771991","0.0-101.0-0.0","""event"",""trial"",""time""
""fullscreenenter"",""0"",""3632""
","
","
","""event"",""trial"",""time""
""fullscreenenter"",""0"",""3632""
","
","339.1999999284744","","","","","","","","51","0,1,0","1","forest","44","probe-22","0.16779844878028788","0.5342861031110163","0.18356702070950598","0","","","","","","","",""
"","html-keyboard-response","183","773006","0.0-101.0-1.0","""event"",""trial"",""time""
""fullscreenenter"",""0"",""3632""
","
","
","""event"",""trial"",""time""
""fullscreenenter"",""0"",""3632""
","
","null","<p></p>","null","","","","","","","","","","","","","","","","","","","","","","",""
"","do_trial","184","777877","0.0-102.0-0.0","""event"",""trial"",""time""
""fullscreenenter"",""0"",""3632""
","
","
","""event"",""trial"",""time""
""fullscreenenter"",""0"",""3632""
","
","326.3000000715256","","","","","","","","51","0,0,0","1","forest","45","probe-117","0.08076678176576552","0.535276780163048","0.27389993862113143","0","","","","","","","",""
"","html-keyboard-response","185","778890","0.0-102.0-1.0","""event"",""trial"",""time""
""fullscreenenter"",""0"",""3632""
","
","
","""event"",""trial"",""time""
""fullscreenenter"",""0"",""3632""
","
","null","<p></p>","null","","","","","","","","","","","","","","","","","","","","","","",""
"","do_trial","186","783510","0.0-103.0-0.0","""event"",""trial"",""time""
""fullscreenenter"",""0"",""3632""
","
","
","""event"",""trial"",""time""
""fullscreenenter"",""0"",""3632""
","
","81","","","","","","","","51","0,1,0","1","forest","46","probe-30","0.07838292139575433","0.5847057165941467","0.21567073867085004","0","","","","","","","",""
"","html-keyboard-response","187","784526","0.0-103.0-1.0","""event"",""trial"",""time""
""fullscreenenter"",""0"",""3632""
","
","
","""event"",""trial"",""time""
""fullscreenenter"",""0"",""3632""
","
","null","<p></p>","null","","","","","","","","","","","","","","","","","","","","","","",""
"","do_trial","188","789461","0.0-104.0-0.0","""event"",""trial"",""time""
""fullscreenenter"",""0"",""3632""
","
","
","""event"",""trial"",""time""
""fullscreenenter"",""0"",""3632""
","
","394.3000000715256","","","","","","","","51","0,0,0","1","forest","47","probe-202","0.1591616073721631","0.4744563805245083","0.38253480175668864","0","","","","","","","",""
"","html-keyboard-response","189","790470","0.0-104.0-1.0","""event"",""trial"",""time""
""fullscreenenter"",""0"",""3632""
","
","
","""event"",""trial"",""time""
""fullscreenenter"",""0"",""3632""
","
","null","<p></p>","null","","","","","","","","","","","","","","","","","","","","","","",""
"","do_trial","190","795440","0.0-105.0-0.0","""event"",""trial"",""time""
""fullscreenenter"",""0"",""3632""
","
","
","""event"",""trial"",""time""
""fullscreenenter"",""0"",""3632""
","
","415.7999999523163","","","","","","","","51","0,0,1","1","forest","48","probe-217","0.0724799901833221","0.4990629231009912","0.27348053380364323","1","","","","","","","",""
"","html-keyboard-response","191","796446","0.0-105.0-1.0","""event"",""trial"",""time""
""fullscreenenter"",""0"",""3632""
","
","
","""event"",""trial"",""time""
""fullscreenenter"",""0"",""3632""
","
","null","<p></p>","null","","","","","","","","","","","","","","","","","","","","","","",""
"","do_trial","192","801105","0.0-106.0-0.0","""event"",""trial"",""time""
""fullscreenenter"",""0"",""3632""
","
","
","""event"",""trial"",""time""
""fullscreenenter"",""0"",""3632""
","
","106.19999992847443","","","","","","","","51","0,1,0","1","forest","49","probe-69","0.06946458872440006","0.5846224841299684","0.31632966607496604","0","","","","","","","",""
"","html-keyboard-response","193","802114","0.0-106.0-1.0","""event"",""trial"",""time""
""fullscreenenter"",""0"",""3632""
","
","
","""event"",""trial"",""time""
""fullscreenenter"",""0"",""3632""
","
","null","<p></p>","null","","","","","","","","","","","","","","","","","","","","","","",""
"","do_trial","194","808234","0.0-107.0-0.0","""event"",""trial"",""time""
""fullscreenenter"",""0"",""3632""
","
","
","""event"",""trial"",""time""
""fullscreenenter"",""0"",""3632""
","
","1579.9000000953674","","","","","","","","51","0,1,0","1","forest","50","probe-97","0.14606232299589467","0.4833211762172569","0.23434272037655368","0","","","","","","","",""
"","html-keyboard-response","195","809249","0.0-107.0-1.0","""event"",""trial"",""time""
""fullscreenenter"",""0"",""3632""
","
","
","""event"",""trial"",""time""
""fullscreenenter"",""0"",""3632""
","
","null","<p></p>","null","","","","","","","","","","","","","","","","","","","","","","",""
"","do_trial","196","814392","0.0-108.0-0.0","""event"",""trial"",""time""
""fullscreenenter"",""0"",""3632""
","
","
","""event"",""trial"",""time""
""fullscreenenter"",""0"",""3632""
","
","590.1000000238419","","","","","","","","51","0,1,1","1","forest","51","probe-114","0.13786953388816486","0.5606259083166413","0.18542546459686635","1","","","","","","","",""
"","html-keyboard-response","197","815393","0.0-108.0-1.0","""event"",""trial"",""time""
""fullscreenenter"",""0"",""3632""
","
","
","""event"",""trial"",""time""
""fullscreenenter"",""0"",""3632""
","
","null","<p></p>","null","","","","","","","","","","","","","","","","","","","","","","",""
"","do_trial","198","820093","0.0-109.0-0.0","""event"",""trial"",""time""
""fullscreenenter"",""0"",""3632""
","
","
","""event"",""trial"",""time""
""fullscreenenter"",""0"",""3632""
","
","153.79999995231628","","","","","","","","51","0,1,0","1","forest","52","probe-183","0.12392398587322102","0.5035758361091384","0.26570188731195854","0","","","","","","","",""
"","html-keyboard-response","199","821102","0.0-109.0-1.0","""event"",""trial"",""time""
""fullscreenenter"",""0"",""3632""
","
","
","""event"",""trial"",""time""
""fullscreenenter"",""0"",""3632""
","
","null","<p></p>","null","","","","","","","","","","","","","","","","","","","","","","",""
"","do_trial","200","827105","0.0-110.0-0.0","""event"",""trial"",""time""
""fullscreenenter"",""0"",""3632""
","
","
","""event"",""trial"",""time""
""fullscreenenter"",""0"",""3632""
","
","1454.0999999046326","","","","","","","","51","1,0,1","1","forest","53","probe-179","0.1756193560531527","0.5670625341353988","0.2576050988004527","1","","","","","","","",""
"","html-keyboard-response","201","828120","0.0-110.0-1.0","""event"",""trial"",""time""
""fullscreenenter"",""0"",""3632""
","
","
","""event"",""trial"",""time""
""fullscreenenter"",""0"",""3632""
","
","null","<p></p>","null","","","","","","","","","","","","","","","","","","","","","","",""
"","do_trial","202","833689","0.0-111.0-0.0","""event"",""trial"",""time""
""fullscreenenter"",""0"",""3632""
","
","
","""event"",""trial"",""time""
""fullscreenenter"",""0"",""3632""
","
","1010.8000000715256","","","","","","","","51","1,1,0","1","forest","54","probe-55","0.058805599395752854","0.6273765565203042","0.20252589947660024","0","","","","","","","",""
"","html-keyboard-response","203","834705","0.0-111.0-1.0","""event"",""trial"",""time""
""fullscreenenter"",""0"",""3632""
","
","
","""event"",""trial"",""time""
""fullscreenenter"",""0"",""3632""
","
","null","<p></p>","null","","","","","","","","","","","","","","","","","","","","","","",""
"","do_trial","204","840111","0.0-112.0-0.0","""event"",""trial"",""time""
""fullscreenenter"",""0"",""3632""
","
","
","""event"",""trial"",""time""
""fullscreenenter"",""0"",""3632""
","
","862.5999999046326","","","","","","","","51","1,1,0","1","forest","55","probe-230","0.10211190612818119","0.7787559095987001","0.21190642226519113","0","","","","","","","",""
"","html-keyboard-response","205","841125","0.0-112.0-1.0","""event"",""trial"",""time""
""fullscreenenter"",""0"",""3632""
","
","
","""event"",""trial"",""time""
""fullscreenenter"",""0"",""3632""
","
","null","<p></p>","null","","","","","","","","","","","","","","","","","","","","","","",""
"","do_trial","206","845734","0.0-113.0-0.0","""event"",""trial"",""time""
""fullscreenenter"",""0"",""3632""
","
","
","""event"",""trial"",""time""
""fullscreenenter"",""0"",""3632""
","
","47.10000002384186","","","","","","","","51","1,1,0","1","forest","56","probe-74","0.14193571761646243","0.730076082246797","0.29203770019110864","0","","","","","","","",""
"","html-keyboard-response","207","846743","0.0-113.0-1.0","""event"",""trial"",""time""
""fullscreenenter"",""0"",""3632""
","
","
","""event"",""trial"",""time""
""fullscreenenter"",""0"",""3632""
","
","null","<p></p>","null","","","","","","","","","","","","","","","","","","","","","","",""
"","do_trial","208","851695","0.0-114.0-0.0","""event"",""trial"",""time""
""fullscreenenter"",""0"",""3632""
","
","
","""event"",""trial"",""time""
""fullscreenenter"",""0"",""3632""
","
","405.59999990463257","","","","","","","","51","1,0,0","1","forest","57","probe-21","0.0754237134233689","0.5429362340703265","0.27074167963505186","0","","","","","","","",""
"","html-keyboard-response","209","852709","0.0-114.0-1.0","""event"",""trial"",""time""
""fullscreenenter"",""0"",""3632""
","
","
","""event"",""trial"",""time""
""fullscreenenter"",""0"",""3632""
","
","null","<p></p>","null","","","","","","","","","","","","","","","","","","","","","","",""
"","do_trial","210","857529","0.0-115.0-0.0","""event"",""trial"",""time""
""fullscreenenter"",""0"",""3632""
","
","
","""event"",""trial"",""time""
""fullscreenenter"",""0"",""3632""
","
","275.39999997615814","","","","","","","","49","0,0,0","1","forest","58","probe-31","0.07335485770029898","0.5892428730534714","0.33576202340480105","0","","","","","","","",""
"","html-keyboard-response","211","858546","0.0-115.0-1.0","""event"",""trial"",""time""
""fullscreenenter"",""0"",""3632""
","
","
","""event"",""trial"",""time""
""fullscreenenter"",""0"",""3632""
","
","null","<p></p>","null","","","","","","","","","","","","","","","","","","","","","","",""
"","do_trial","212","863700","0.0-116.0-0.0","""event"",""trial"",""time""
""fullscreenenter"",""0"",""3632""
","
","
","""event"",""trial"",""time""
""fullscreenenter"",""0"",""3632""
","
","613.6999999284744","","","","","","","","49","0,1,0","1","forest","59","probe-34","0.09435495002533699","0.7520063856791057","0.45240166467270093","0","","","","","","","",""
"","html-keyboard-response","213","864713","0.0-116.0-1.0","""event"",""trial"",""time""
""fullscreenenter"",""0"",""3632""
","
","
","""event"",""trial"",""time""
""fullscreenenter"",""0"",""3632""
","
","null","<p></p>","null","","","","","","","","","","","","","","","","","","","","","","",""
"","do_trial","214","869509","0.0-117.0-0.0","""event"",""trial"",""time""
""fullscreenenter"",""0"",""3632""
","
","
","""event"",""trial"",""time""
""fullscreenenter"",""0"",""3632""
","
","244.70000004768372","","","","","","","","49","0,1,1","1","forest","60","probe-16","0.05493952937961247","0.6216982001531997","0.41576360725103945","0","","","","","","","",""
"","html-keyboard-response","215","870522","0.0-117.0-1.0","""event"",""trial"",""time""
""fullscreenenter"",""0"",""3632""
","
","
","""event"",""trial"",""time""
""fullscreenenter"",""0"",""3632""
","
","null","<p></p>","null","","","","","","","","","","","","","","","","","","","","","","",""
"","do_trial","216","875409","0.0-118.0-0.0","""event"",""trial"",""time""
""fullscreenenter"",""0"",""3632""
","
","
","""event"",""trial"",""time""
""fullscreenenter"",""0"",""3632""
","
","335","","","","","","","","51","0,0,1","1","forest","61","probe-119","0.08033666752145029","0.6092321144962339","0.40718408815915835","1","","","","","","","",""
"","html-keyboard-response","217","876418","0.0-118.0-1.0","""event"",""trial"",""time""
""fullscreenenter"",""0"",""3632""
","
","
","""event"",""trial"",""time""
""fullscreenenter"",""0"",""3632""
","
","null","<p></p>","null","","","","","","","","","","","","","","","","","","","","","","",""
"","do_trial","218","881702","0.0-119.0-0.0","""event"",""trial"",""time""
""fullscreenenter"",""0"",""3632""
","
","
","""event"",""trial"",""time""
""fullscreenenter"",""0"",""3632""
","
","721.6000000238419","","","","","","","","51","0,1,0","1","forest","62","probe-158","0.13350217092558242","0.5170664736587784","0.3297083799944272","0","","","","","","","",""
"","html-keyboard-response","219","882715","0.0-119.0-1.0","""event"",""trial"",""time""
""fullscreenenter"",""0"",""3632""
","
","
","""event"",""trial"",""time""
""fullscreenenter"",""0"",""3632""
","
","null","<p></p>","null","","","","","","","","","","","","","","","","","","","","","","",""
"","do_trial","220","887735","0.0-120.0-0.0","""event"",""trial"",""time""
""fullscreenenter"",""0"",""3632""
","
","
","""event"",""trial"",""time""
""fullscreenenter"",""0"",""3632""
","
","470.7000000476837","","","","","","","","51","0,1,0","1","forest","63","probe-13","0.15662208793569293","0.5493705604906917","0.27900918044191214","0","","","","","","","",""
"","html-keyboard-response","221","888748","0.0-120.0-1.0","""event"",""trial"",""time""
""fullscreenenter"",""0"",""3632""
","
","
","""event"",""trial"",""time""
""fullscreenenter"",""0"",""3632""
","
","null","<p></p>","null","","","","","","","","","","","","","","","","","","","","","","",""
"","do_trial","222","895061","0.0-121.0-0.0","""event"",""trial"",""time""
""fullscreenenter"",""0"",""3632""
","
","
","""event"",""trial"",""time""
""fullscreenenter"",""0"",""3632""
","
","1764.1000000238419","","","","","","","","51","0,0,0","1","forest","64","probe-80","0.0660667563074609","0.4375037701967372","0.25962886805501273","0","","","","","","","",""
"","html-keyboard-response","223","896064","0.0-121.0-1.0","""event"",""trial"",""time""
""fullscreenenter"",""0"",""3632""
","
","
","""event"",""trial"",""time""
""fullscreenenter"",""0"",""3632""
","
","null","<p></p>","null","","","","","","","","","","","","","","","","","","","","","","",""
"","do_trial","224","900911","0.0-122.0-0.0","""event"",""trial"",""time""
""fullscreenenter"",""0"",""3632""
","
","
","""event"",""trial"",""time""
""fullscreenenter"",""0"",""3632""
","
","293","","","","","","","","51","1,0,1","1","forest","65","probe-41","0.08097878012739812","0.42062157832424374","0.2746174330939657","1","","","","","","","",""
"","html-keyboard-response","225","901923","0.0-122.0-1.0","""event"",""trial"",""time""
""fullscreenenter"",""0"",""3632""
","
","
","""event"",""trial"",""time""
""fullscreenenter"",""0"",""3632""
","
","null","<p></p>","null","","","","","","","","","","","","","","","","","","","","","","",""
"","do_trial","226","906929","0.0-123.0-0.0","""event"",""trial"",""time""
""fullscreenenter"",""0"",""3632""
","
","
","""event"",""trial"",""time""
""fullscreenenter"",""0"",""3632""
","
","459.5","","","","","","","","51","0,1,0","1","forest","66","probe-118","0.06904044403595622","0.4609655522673579","0.20579049592880627","0","","","","","","","",""
"","html-keyboard-response","227","907939","0.0-123.0-1.0","""event"",""trial"",""time""
""fullscreenenter"",""0"",""3632""
","
","
","""event"",""trial"",""time""
""fullscreenenter"",""0"",""3632""
","
","null","<p></p>","null","","","","","","","","","","","","","","","","","","","","","","",""
"","do_trial","228","912776","0.0-124.0-0.0","""event"",""trial"",""time""
""fullscreenenter"",""0"",""3632""
","
","
","""event"",""trial"",""time""
""fullscreenenter"",""0"",""3632""
","
","294.60000002384186","","","","","","","","51","1,0,0","1","forest","67","probe-78","0.13783041725908038","0.6127694726008532","0.16666726505714724","0","","","","","","","",""
"","html-keyboard-response","229","913790","0.0-124.0-1.0","""event"",""trial"",""time""
""fullscreenenter"",""0"",""3632""
","
","
","""event"",""trial"",""time""
""fullscreenenter"",""0"",""3632""
","
","null","<p></p>","null","","","","","","","","","","","","","","","","","","","","","","",""
"","do_trial","230","918844","0.0-125.0-0.0","""event"",""trial"",""time""
""fullscreenenter"",""0"",""3632""
","
","
","""event"",""trial"",""time""
""fullscreenenter"",""0"",""3632""
","
","486.7000000476837","","","","","","","","51","1,1,0","1","forest","68","probe-220","0.18728691354784835","0.5663516693349638","0.3630400453378021","0","","","","","","","",""
"","html-keyboard-response","231","919860","0.0-125.0-1.0","""event"",""trial"",""time""
""fullscreenenter"",""0"",""3632""
","
","
","""event"",""trial"",""time""
""fullscreenenter"",""0"",""3632""
","
","null","<p></p>","null","","","","","","","","","","","","","","","","","","","","","","",""
"","do_trial","232","924813","0.0-126.0-0.0","""event"",""trial"",""time""
""fullscreenenter"",""0"",""3632""
","
","
","""event"",""trial"",""time""
""fullscreenenter"",""0"",""3632""
","
","410.60000002384186","","","","","","","","51","1,1,1","1","forest","69","probe-92","0.2410309416843125","0.6036275441530081","0.2675917762627056","1","","","","","","","",""
"","html-keyboard-response","233","925820","0.0-126.0-1.0","""event"",""trial"",""time""
""fullscreenenter"",""0"",""3632""
","
","
","""event"",""trial"",""time""
""fullscreenenter"",""0"",""3632""
","
","null","<p></p>","null","","","","","","","","","","","","","","","","","","","","","","",""
"","do_bye","234","927341","0.0-127.0-0.0","""event"",""trial"",""time""
""fullscreenenter"",""0"",""3632""
","
","
","""event"",""trial"",""time""
""fullscreenenter"",""0"",""3632""
","
","null","","","","","","","","null","","","","","","","","","","","","","","","","",""
"","break","235","928163","0.0-127.0-1.0","""event"",""trial"",""time""
""fullscreenenter"",""0"",""3632""
","
","
","""event"",""trial"",""time""
""fullscreenenter"",""0"",""3632""
","
","820","<div class='center'><p>Time to take a quick break! You have 2 minutes to rest, but you can move on sooner if you'd like.</p><p> Press the <b>space bar</b> to continue.</p></div>","32","","","","","","","","","","","","","","","","","","","","","","",""
"","do_travel","236","937176","0.0-128.0-0.0","""event"",""trial"",""time""
""fullscreenenter"",""0"",""3632""
","
","
","""event"",""trial"",""time""
""fullscreenenter"",""0"",""3632""
","
","null","","","","","","","","null","","","","","","","","","","","","","","","","",""
"","do_welcome","237","941186","0.0-128.0-1.0","""event"",""trial"",""time""
""fullscreenenter"",""0"",""3632""
","
","
","""event"",""trial"",""time""
""fullscreenenter"",""0"",""3632""
","
","null","","","","","","","","null","","","","","","","","","","","","","","","","",""
"","do_trial","238","947557","0.0-129.0-0.0","""event"",""trial"",""time""
""fullscreenenter"",""0"",""3632""
","
","
","""event"",""trial"",""time""
""fullscreenenter"",""0"",""3632""
","
","1816.5","","","","","","","","50","1,1,0","2","highway","70","probe-14","0.11376347739003176","1","0.3605225437973058","1","","","","","","","",""
"","html-keyboard-response","239","948577","0.0-129.0-1.0","""event"",""trial"",""time""
""fullscreenenter"",""0"",""3632""
","
","
","""event"",""trial"",""time""
""fullscreenenter"",""0"",""3632""
","
","null","<p></p>","null","","","","","","","","","","","","","","","","","","","","","","",""
"","do_trial","240","953466","0.0-130.0-0.0","""event"",""trial"",""time""
""fullscreenenter"",""0"",""3632""
","
","
","""event"",""trial"",""time""
""fullscreenenter"",""0"",""3632""
","
","339.2000000476837","","","","","","","","50","0,1,0","2","highway","71","probe-93","0.1642704049830145","1","0.31101979997607065","1","","","","","","","",""
"","html-keyboard-response","241","954471","0.0-130.0-1.0","""event"",""trial"",""time""
""fullscreenenter"",""0"",""3632""
","
","
","""event"",""trial"",""time""
""fullscreenenter"",""0"",""3632""
","
","null","<p></p>","null","","","","","","","","","","","","","","","","","","","","","","",""
"","do_trial","242","959337","0.0-131.0-0.0","""event"",""trial"",""time""
""fullscreenenter"",""0"",""3632""
","
","
","""event"",""trial"",""time""
""fullscreenenter"",""0"",""3632""
","
","321.2000000476837","","","","","","","","50","0,1,0","2","highway","72","probe-07","0.3257508315976427","0.8793682108351943","0.2193242801464449","1","","","","","","","",""
"","html-keyboard-response","243","960345","0.0-131.0-1.0","""event"",""trial"",""time""
""fullscreenenter"",""0"",""3632""
","
","
","""event"",""trial"",""time""
""fullscreenenter"",""0"",""3632""
","
","null","<p></p>","null","","","","","","","","","","","","","","","","","","","","","","",""
"","do_trial","244","965581","0.0-132.0-0.0","""event"",""trial"",""time""
""fullscreenenter"",""0"",""3632""
","
","
","""event"",""trial"",""time""
""fullscreenenter"",""0"",""3632""
","
","690.4000000953674","","","","","","","","50","0,0,0","2","highway","73","probe-186","0.17855785596348397","0.7517613448386183","0.33348850272603514","0","","","","","","","",""
"","html-keyboard-response","245","966589","0.0-132.0-1.0","""event"",""trial"",""time""
""fullscreenenter"",""0"",""3632""
","
","
","""event"",""trial"",""time""
""fullscreenenter"",""0"",""3632""
","
","null","<p></p>","null","","","","","","","","","","","","","","","","","","","","","","",""
"","do_trial","246","971790","0.0-133.0-0.0","""event"",""trial"",""time""
""fullscreenenter"",""0"",""3632""
","
","
","""event"",""trial"",""time""
""fullscreenenter"",""0"",""3632""
","
","659.3999999761581","","","","","","","","50","0,1,1","2","highway","74","probe-153","0.22534438440328253","0.5647403898297303","0.3781059162156226","1","","","","","","","",""
"","html-keyboard-response","247","972806","0.0-133.0-1.0","""event"",""trial"",""time""
""fullscreenenter"",""0"",""3632""
","
","
","""event"",""trial"",""time""
""fullscreenenter"",""0"",""3632""
","
","null","<p></p>","null","","","","","","","","","","","","","","","","","","","","","","",""
"","do_trial","248","977679","0.0-134.0-0.0","""event"",""trial"",""time""
""fullscreenenter"",""0"",""3632""
","
","
","""event"",""trial"",""time""
""fullscreenenter"",""0"",""3632""
","
","328.39999997615814","","","","","","","","50","0,0,1","2","highway","75","probe-90","0.13138538126224866","0.5351555228889646","0.34625781904371083","0","","","","","","","",""
"","html-keyboard-response","249","978691","0.0-134.0-1.0","""event"",""trial"",""time""
""fullscreenenter"",""0"",""3632""
","
","
","""event"",""trial"",""time""
""fullscreenenter"",""0"",""3632""
","
","null","<p></p>","null","","","","","","","","","","","","","","","","","","","","","","",""
"","do_trial","250","983693","0.0-135.0-0.0","""event"",""trial"",""time""
""fullscreenenter"",""0"",""3632""
","
","
","""event"",""trial"",""time""
""fullscreenenter"",""0"",""3632""
","
","458.7000000476837","","","","","","","","50","0,1,0","2","highway","76","probe-209","0.059278959405008484","0.658358213231461","0.2772573395530847","1","","","","","","","",""
"","html-keyboard-response","251","984709","0.0-135.0-1.0","""event"",""trial"",""time""
""fullscreenenter"",""0"",""3632""
","
","
","""event"",""trial"",""time""
""fullscreenenter"",""0"",""3632""
","
","null","<p></p>","null","","","","","","","","","","","","","","","","","","","","","","",""
"","do_trial","252","989579","0.0-136.0-0.0","""event"",""trial"",""time""
""fullscreenenter"",""0"",""3632""
","
","
","""event"",""trial"",""time""
""fullscreenenter"",""0"",""3632""
","
","320","","","","","","","","50","0,1,1","2","highway","77","probe-213","0.13284619960610633","0.7053563119662679","0.16319790942788148","1","","","","","","","",""
"","html-keyboard-response","253","990591","0.0-136.0-1.0","""event"",""trial"",""time""
""fullscreenenter"",""0"",""3632""
","
","
","""event"",""trial"",""time""
""fullscreenenter"",""0"",""3632""
","
","null","<p></p>","null","","","","","","","","","","","","","","","","","","","","","","",""
"","do_trial","254","995476","0.0-137.0-0.0","""event"",""trial"",""time""
""fullscreenenter"",""0"",""3632""
","
","
","""event"",""trial"",""time""
""fullscreenenter"",""0"",""3632""
","
","337.40000009536743","","","","","","","","50","0,0,0","2","highway","78","probe-160","0.21567464449962692","0.5014497660616458","0.08013507407533023","0","","","","","","","",""
"","html-keyboard-response","255","996494","0.0-137.0-1.0","""event"",""trial"",""time""
""fullscreenenter"",""0"",""3632""
","
","
","""event"",""trial"",""time""
""fullscreenenter"",""0"",""3632""
","
","null","<p></p>","null","","","","","","","","","","","","","","","","","","","","","","",""
"","do_trial","256","1001522","0.0-138.0-0.0","""event"",""trial"",""time""
""fullscreenenter"",""0"",""3632""
","
","
","""event"",""trial"",""time""
""fullscreenenter"",""0"",""3632""
","
","482.6999999284744","","","","","","","","50","0,1,0","2","highway","79","probe-40","0.19959884588915533","0.6348983295312012","0.169041181363881","1","","","","","","","",""
"","html-keyboard-response","257","1002532","0.0-138.0-1.0","""event"",""trial"",""time""
""fullscreenenter"",""0"",""3632""
","
","
","""event"",""trial"",""time""
""fullscreenenter"",""0"",""3632""
","
","null","<p></p>","null","","","","","","","","","","","","","","","","","","","","","","",""
"","do_trial","258","1007599","0.0-139.0-0.0","""event"",""trial"",""time""
""fullscreenenter"",""0"",""3632""
","
","
","""event"",""trial"",""time""
""fullscreenenter"",""0"",""3632""
","
","508.90000009536743","","","","","","","","50","0,1,0","2","highway","80","probe-132","0.22961201832910091","0.584729290926538","0.33609045984375996","1","","","","","","","",""
"","html-keyboard-response","259","1008609","0.0-139.0-1.0","""event"",""trial"",""time""
""fullscreenenter"",""0"",""3632""
","
","
","""event"",""trial"",""time""
""fullscreenenter"",""0"",""3632""
","
","null","<p></p>","null","","","","","","","","","","","","","","","","","","","","","","",""
"","do_trial","260","1013717","0.0-140.0-0.0","""event"",""trial"",""time""
""fullscreenenter"",""0"",""3632""
","
","
","""event"",""trial"",""time""
""fullscreenenter"",""0"",""3632""
","
","570.1999999284744","","","","","","","","50","1,0,0","2","highway","81","probe-150","0.17817693822590783","0.3939740755034579","0.2862899040302945","0","","","","","","","",""
"","html-keyboard-response","261","1014732","0.0-140.0-1.0","""event"",""trial"",""time""
""fullscreenenter"",""0"",""3632""
","
","
","""event"",""trial"",""time""
""fullscreenenter"",""0"",""3632""
","
