"success","trial_type","trial_index","time_elapsed","internal_node_id","interactions","blur_events","focus_events","fullscreenenter_events","fullscreenexit_events","rt","stimulus","key_press","subject_id","participant_id","age","gender","prompt","response","choice_outcomes","context_n","context_img_id","trial_n","probe_img_id","pR_red","pR_white","pR_black","outcome","contextArray_ind","validImageProbes","invalidImageProbes","pRew_Red","pRew_White","pRew_Black","availableForMemProbe","choice_blocks"
"true","fullscreen","0","4430","0.0-0.0","""event"",""trial"",""time""
""fullscreenenter"",""0"",""3441""
","
","
","""event"",""trial"",""time""
""fullscreenenter"",""0"",""3441""
","
","","","","","","","","","","","","","","","","","","","","","","","","","",""
"","pavlovia","1","4433","0.0-1.0","""event"",""trial"",""time""
""fullscreenenter"",""0"",""3441""
","
","
","""event"",""trial"",""time""
""fullscreenenter"",""0"",""3441""
","
","","","","","","","","","","","","","","","","","","","","","","","","","",""
"","instruc1","2","49597","0.0-2.0","""event"",""trial"",""time""
""fullscreenenter"",""0"",""3441""
","
","
","""event"",""trial"",""time""
""fullscreenenter"",""0"",""3441""
","
","null","run_exp/static/audio/clip_1_welcome.m4a","null","264","887","13","Female","<div class='center'><p>Welcome! This is the first part of the study. It will last ~30 minutes. In part 1 and part 2 of the study, you are the head captain of a pirate ship traveling around the world to different islands. You will play a few different games throughout these two parts. Here is an overview of them:</p><br><p>Part 1 (today)</p><p>1. Instructions, practice game, and quiz</p><p>2. Pick a pirate game on 6 different islands</p><br><p>Part 2 (tomorrow)</p><p>3. Pick a pirate game and memory game</p><p>4. Where did you see this ship? </p></div>","","","","","","","","","","","","","","","","","",""
"","html-keyboard-response","3","50695","0.0-3.0","""event"",""trial"",""time""
""fullscreenenter"",""0"",""3441""
","
","
","""event"",""trial"",""time""
""fullscreenenter"",""0"",""3441""
","
","1093.6000000014901","<div class='center'><p>Welcome! This is the first part of the study. It will last ~30 minutes. In part 1 and part 2 of the study, you are the head captain of a pirate ship traveling around the world to different islands. You will play a few different games throughout these two parts. Here is an overview of them:</p><br><p>Part 1 (today)</p><p>1. Instructions, practice game, and quiz</p><p>2. Pick a pirate game on 6 different islands</p><br><p>Part 2 (tomorrow)</p><p>3. Pick a pirate game and memory game</p><p>4. Where did you see this ship? </p><p><b>[Press the space bar to continue]</b></p></div>","32","","","","","","","","","","","","","","","","","","","","","","",""
"","instruc2","4","56191","0.0-4.0","""event"",""trial"",""time""
""fullscreenenter"",""0"",""3441""
","
","
","""event"",""trial"",""time""
""fullscreenenter"",""0"",""3441""
","
","null","run_exp/static/audio/clip_2_different_places.m4a","null","","","","","<div class='center'><p>Today, you’ll visit these 6 islands on your journey. You'll be able to see these islands from your ship.</p><p><img src='run_exp/static/images/contexts/all_contexts.png' height='500'></p></div>","","","","","","","","","","","","","","","","","",""
"","html-keyboard-response","5","58279","0.0-5.0","""event"",""trial"",""time""
""fullscreenenter"",""0"",""3441""
","
","
","""event"",""trial"",""time""
""fullscreenenter"",""0"",""3441""
","
","2085.5","<div class='center'><p>Today, you’ll visit these 6 islands on your journey. You'll be able to see these islands from your ship.</p><p><img src='run_exp/static/images/contexts/all_contexts.png' height='500'></p><p><b>[Press the space bar to continue]</b></p></div>","32","","","","","","","","","","","","","","","","","","","","","","",""
"","instruc3","6","68173","0.0-6.0","""event"",""trial"",""time""
""fullscreenenter"",""0"",""3441""
","
","
","""event"",""trial"",""time""
""fullscreenenter"",""0"",""3441""
","
","null","run_exp/static/audio/clip_3_goal_of_game_1.m4a","null","","","","","<div class='center'><p> The pirates on your ship will rob other ships as they leave the island.</p> These ships have just sold their goods to the islanders, so they will be filled with lots and lots of gold.</p><p><img src='run_exp/static/images/tutorial/ship_center.png' height='400'></p></div>","","","","","","","","","","","","","","","","","",""
"","html-keyboard-response","7","72318","0.0-7.0","""event"",""trial"",""time""
""fullscreenenter"",""0"",""3441""
","
","
","""event"",""trial"",""time""
""fullscreenenter"",""0"",""3441""
","
","4142.800000000745","<div class='center'><p> The pirates on your ship will rob other ships as they leave the island.</p> These ships have just sold their goods to the islanders, so they will be filled with lots and lots of gold.</p><p><img src='run_exp/static/images/tutorial/ship_center.png' height='400'></p><p><b>[Press the space bar to continue]</b></p></div>","32","","","","","","","","","","","","","","","","","","","","","","",""
"","instruc4","8","100495","0.0-8.0","""event"",""trial"",""time""
""fullscreenenter"",""0"",""3441""
","
","
","""event"",""trial"",""time""
""fullscreenenter"",""0"",""3441""
","
","null","run_exp/static/audio/clip_4_goal_of_game_2.m4a","null","","","","","<div class='center'><p>As the head captain, you do not have to rob any ships yourself. Another pirate will be doing the robbing for you. First, you will choose a pirate to rob the next ship.</p><p><img src='run_exp/static/images/tutorial/pirates_all_crop.png' height='200'></p><p>Then, you'll see if the pirate successfully robbed the ship of their gold. If they were successful, then you'll get a stack of gold coins like this:</p><p><img src='run_exp/static/images/tutorial/reward.png' height='150'></p><p> If they were <b>not</b> successful, then you'll get no gold coins, and you'll see a big red x like this: </p><p><img src='run_exp/static/images/tutorial/reward_no.png' height='150'></p><p> How much bonus money you make is based on how many gold coins you collect.</p><div>","","","","","","","","","","","","","","","","","",""
"","html-keyboard-response","9","101746","0.0-9.0","""event"",""trial"",""time""
""fullscreenenter"",""0"",""3441""
","
","
","""event"",""trial"",""time""
""fullscreenenter"",""0"",""3441""
","
","1248.7999999988824","<div class='center'><p>As the head captain, you do not have to rob any ships yourself. Another pirate will be doing the robbing for you. First, you will choose a pirate to rob the next ship.</p><p><img src='run_exp/static/images/tutorial/pirates_all_crop.png' height='200'></p><p>Then, you'll see if the pirate successfully robbed the ship of their gold. If they were successful, then you'll get a stack of gold coins like this:</p><p><img src='run_exp/static/images/tutorial/reward.png' height='150'></p><p> If they were <b>not</b> successful, then you'll get no gold coins, and you'll see a big red x like this: </p><p><img src='run_exp/static/images/tutorial/reward_no.png' height='150'></p><p> How much bonus money you make is based on how many gold coins you collect.</p<p><b>[Press the space bar to continue]</b></p></div>","32","","","","","","","","","","","","","","","","","","","","","","",""
"","instruc5","10","122276","0.0-10.0","""event"",""trial"",""time""
""fullscreenenter"",""0"",""3441""
","
","
","""event"",""trial"",""time""
""fullscreenenter"",""0"",""3441""
","
","20528","run_exp/static/audio/clip_5_probabilistic.m4a","49","","","","","<div class='center'><p>Even the most skilled pirate can not rob EVERY ship.</p><p> Some ships will have very strong protections against pirate attacks.</p><p> Blue beard, here, is very, very good at robbing ships, but he won't be successful every time he tries to rob one.</p><p> You can press the <b>‘1’</b> key on the keyboard to choose him.</p><p> Try choosing him 10 times to see how often he succeeds at robbing a ship. </p><p><img src='run_exp/static/images/tutorial/blue.png' height='500'></p></div>","","","","","","","","","","","","","","","","","",""
"","html-keyboard-response","11","123779","0.0-11.0","""event"",""trial"",""time""
""fullscreenenter"",""0"",""3441""
","
","
","""event"",""trial"",""time""
""fullscreenenter"",""0"",""3441""
","
","null","<div class='center'><p><img src='run_exp/static/images/tutorial/blue_win.png' height='500'></p></div>","null","","","","","","","","","","","","","","","","","","","","","","",""
"","html-keyboard-response","12","124620","0.0-12.0","""event"",""trial"",""time""
""fullscreenenter"",""0"",""3441""
","
","
","""event"",""trial"",""time""
""fullscreenenter"",""0"",""3441""
","
","839.3999999985099","<div class='center'><img src='run_exp/static/images/tutorial/blue.png' height='500'></p></div>","49","","","","","","","","","","","","","","","","","","","","","","",""
"","html-keyboard-response","13","126121","0.0-13.0","""event"",""trial"",""time""
""fullscreenenter"",""0"",""3441""
","
","
","""event"",""trial"",""time""
""fullscreenenter"",""0"",""3441""
","
","null","<div class='center'><p><img src='run_exp/static/images/tutorial/blue_win.png' height='500'></p></div>","null","","","","","","","","","","","","","","","","","","","","","","",""
"","html-keyboard-response","14","126566","0.0-14.0","""event"",""trial"",""time""
""fullscreenenter"",""0"",""3441""
","
","
","""event"",""trial"",""time""
""fullscreenenter"",""0"",""3441""
","
","443.69999999925494","<div class='center'><img src='run_exp/static/images/tutorial/blue.png' height='500'></p></div>","49","","","","","","","","","","","","","","","","","","","","","","",""
"","html-keyboard-response","15","128068","0.0-15.0","""event"",""trial"",""time""
""fullscreenenter"",""0"",""3441""
","
","
","""event"",""trial"",""time""
""fullscreenenter"",""0"",""3441""
","
","null","<div class='center'><p><img src='run_exp/static/images/tutorial/blue_win.png' height='500'></p></div>","null","","","","","","","","","","","","","","","","","","","","","","",""
"","html-keyboard-response","16","128552","0.0-16.0","""event"",""trial"",""time""
""fullscreenenter"",""0"",""3441""
","
","
","""event"",""trial"",""time""
""fullscreenenter"",""0"",""3441""
","
","482.69999999925494","<div class='center'><img src='run_exp/static/images/tutorial/blue.png' height='500'></p></div>","49","","","","","","","","","","","","","","","","","","","","","","",""
"","html-keyboard-response","17","130054","0.0-17.0","""event"",""trial"",""time""
""fullscreenenter"",""0"",""3441""
","
","
","""event"",""trial"",""time""
""fullscreenenter"",""0"",""3441""
","
","null","<div class='center'><p><img src='run_exp/static/images/tutorial/blue_no_win.png' height='500'></p></div>","null","","","","","","","","","","","","","","","","","","","","","","",""
"","html-keyboard-response","18","130515","0.0-18.0","""event"",""trial"",""time""
""fullscreenenter"",""0"",""3441""
","
","
","""event"",""trial"",""time""
""fullscreenenter"",""0"",""3441""
","
","460.19999999925494","<div class='center'><img src='run_exp/static/images/tutorial/blue.png' height='500'></p></div>","49","","","","","","","","","","","","","","","","","","","","","","",""
"","html-keyboard-response","19","132017","0.0-19.0","""event"",""trial"",""time""
""fullscreenenter"",""0"",""3441""
","
","
","""event"",""trial"",""time""
""fullscreenenter"",""0"",""3441""
","
","null","<div class='center'><p><img src='run_exp/static/images/tutorial/blue_win.png' height='500'></p></div>","null","","","","","","","","","","","","","","","","","","","","","","",""
"","html-keyboard-response","20","133253","0.0-20.0","""event"",""trial"",""time""
""fullscreenenter"",""0"",""3441""
","
","
","""event"",""trial"",""time""
""fullscreenenter"",""0"",""3441""
","
","1234.4000000003725","<div class='center'><img src='run_exp/static/images/tutorial/blue.png' height='500'></p></div>","49","","","","","","","","","","","","","","","","","","","","","","",""
"","html-keyboard-response","21","134754","0.0-21.0","""event"",""trial"",""time""
""fullscreenenter"",""0"",""3441""
","
","
","""event"",""trial"",""time""
""fullscreenenter"",""0"",""3441""
","
","null","<div class='center'><p><img src='run_exp/static/images/tutorial/blue_win.png' height='500'></p></div>","null","","","","","","","","","","","","","","","","","","","","","","",""
"","html-keyboard-response","22","135663","0.0-22.0","""event"",""trial"",""time""
""fullscreenenter"",""0"",""3441""
","
","
","""event"",""trial"",""time""
""fullscreenenter"",""0"",""3441""
","
","906.4000000003725","<div class='center'><img src='run_exp/static/images/tutorial/blue.png' height='500'></p></div>","49","","","","","","","","","","","","","","","","","","","","","","",""
"","html-keyboard-response","23","137165","0.0-23.0","""event"",""trial"",""time""
""fullscreenenter"",""0"",""3441""
","
","
","""event"",""trial"",""time""
""fullscreenenter"",""0"",""3441""
","
","null","<div class='center'><p><img src='run_exp/static/images/tutorial/blue_win.png' height='500'></p></div>","null","","","","","","","","","","","","","","","","","","","","","","",""
"","html-keyboard-response","24","140103","0.0-24.0","""event"",""trial"",""time""
""fullscreenenter"",""0"",""3441""
","
","
","""event"",""trial"",""time""
""fullscreenenter"",""0"",""3441""
","
","2936.800000000745","<div class='center'><img src='run_exp/static/images/tutorial/blue.png' height='500'></p></div>","49","","","","","","","","","","","","","","","","","","","","","","",""
"","html-keyboard-response","25","141604","0.0-25.0","""event"",""trial"",""time""
""fullscreenenter"",""0"",""3441""
","
","
","""event"",""trial"",""time""
""fullscreenenter"",""0"",""3441""
","
","null","<div class='center'><p><img src='run_exp/static/images/tutorial/blue_no_win.png' height='500'></p></div>","null","","","","","","","","","","","","","","","","","","","","","","",""
"","html-keyboard-response","26","142030","0.0-26.0","""event"",""trial"",""time""
""fullscreenenter"",""0"",""3441""
","
","
","""event"",""trial"",""time""
""fullscreenenter"",""0"",""3441""
","
","424.7999999988824","<div class='center'><img src='run_exp/static/images/tutorial/blue.png' height='500'></p></div>","49","","","","","","","","","","","","","","","","","","","","","","",""
"","html-keyboard-response","27","143533","0.0-27.0","""event"",""trial"",""time""
""fullscreenenter"",""0"",""3441""
","
","
","""event"",""trial"",""time""
""fullscreenenter"",""0"",""3441""
","
","null","<div class='center'><p><img src='run_exp/static/images/tutorial/blue_win.png' height='500'></p></div>","null","","","","","","","","","","","","","","","","","","","","","","",""
"","html-keyboard-response","28","143628","0.0-28.0","""event"",""trial"",""time""
""fullscreenenter"",""0"",""3441""
","
","
","""event"",""trial"",""time""
""fullscreenenter"",""0"",""3441""
","
","93.30000000074506","<div class='center'><img src='run_exp/static/images/tutorial/blue.png' height='500'></p></div>","49","","","","","","","","","","","","","","","","","","","","","","",""
"","html-keyboard-response","29","145130","0.0-29.0","""event"",""trial"",""time""
""fullscreenenter"",""0"",""3441""
","
","
","""event"",""trial"",""time""
""fullscreenenter"",""0"",""3441""
","
","null","<div class='center'><p><img src='run_exp/static/images/tutorial/blue_win.png' height='500'></p></div>","null","","","","","","","","","","","","","","","","","","","","","","",""
"","instruc6","30","150943","0.0-30.0","""event"",""trial"",""time""
""fullscreenenter"",""0"",""3441""
","
","
","""event"",""trial"",""time""
""fullscreenenter"",""0"",""3441""
","
","null","run_exp/static/audio/clip_6_blue_beard_outcome.m4a","null","","","","","<div class='center'><p> See, he succeeded in robbing the ships most of the time but not every time. </p></div>","","","","","","","","","","","","","","","","","",""
"","html-keyboard-response","31","152163","0.0-31.0","""event"",""trial"",""time""
""fullscreenenter"",""0"",""3441""
","
","
","""event"",""trial"",""time""
""fullscreenenter"",""0"",""3441""
","
","1219.4000000003725","<div class='center'><p> See, he succeeded in robbing the ships most of the time but not every time. </p><p><b>[Press the space bar to continue]</b></p></div>","32","","","","","","","","","","","","","","","","","","","","","","",""
"","audio-keyboard-response","32","169700","0.0-32.0","""event"",""trial"",""time""
""fullscreenenter"",""0"",""3441""
","
","
","""event"",""trial"",""time""
""fullscreenenter"",""0"",""3441""
","
","17534.300000000745","run_exp/static/audio/clip_7_pick_pirate.m4a","51","","","","","","","","","","","","","","","","","","","","","","",""
"","audio-keyboard-response","33","176591","0.0-33.0-0.0","""event"",""trial"",""time""
""fullscreenenter"",""0"",""3441""
","
","
","""event"",""trial"",""time""
""fullscreenenter"",""0"",""3441""
","
","6888.0999999996275","run_exp/static/audio/clip_8_chosen_pirate_win.m4a","32","","","","","","","","","","","","","","","","","","","","","","",""
"","audio-keyboard-response","34","179772","0.0-33.0-1.0","""event"",""trial"",""time""
""fullscreenenter"",""0"",""3441""
","
","
","""event"",""trial"",""time""
""fullscreenenter"",""0"",""3441""
","
","3179.2000000011176","run_exp/static/audio/clip_9_pick_a_pirate_again.m4a","49","","","","","","","","","","","","","","","","","","","","","","",""
"","audio-keyboard-response","35","185645","0.0-34.0-0.0","""event"",""trial"",""time""
""fullscreenenter"",""0"",""3441""
","
","
","""event"",""trial"",""time""
""fullscreenenter"",""0"",""3441""
","
","5869.5","run_exp/static/audio/clip_10_chosen_pirate_loss.m4a","32","","","","","","","","","","","","","","","","","","","","","","",""
"","instruc9","36","191346","0.0-35.0-0.0","""event"",""trial"",""time""
""fullscreenenter"",""0"",""3441""
","
","
","""event"",""trial"",""time""
""fullscreenenter"",""0"",""3441""
","
","null","run_exp/static/audio/clip_11_time_out.m4a","null","","","","","<div class='center'><p>If you don’t make your choice fast enough, you’ll have to wait a few seconds before you can make another one. </p><p><img src='run_exp/static/images/miscellaneous/hurry_up.png' height='500'></p></div>","","","","","","","","","","","","","","","","","",""
"","html-keyboard-response","37","192441","0.0-35.0-1.0","""event"",""trial"",""time""
""fullscreenenter"",""0"",""3441""
","
","
","""event"",""trial"",""time""
""fullscreenenter"",""0"",""3441""
","
","1093.4000000003725","<div class='center'><p>If you don’t make your choice fast enough, you’ll have to wait a few seconds before you can make another one. </p><p><img src='run_exp/static/images/miscellaneous/hurry_up.png' height='500'></p><p><b>[Press the space bar to continue]</b></p></div>","32","","","","","","","","","","","","","","","","","","","","","","",""
"","instruc10","38","231656","0.0-35.0-2.0","""event"",""trial"",""time""
""fullscreenenter"",""0"",""3441""
","
","
","""event"",""trial"",""time""
""fullscreenenter"",""0"",""3441""
","
","null","run_exp/static/audio/clip_12_probe.m4a","null","","","","","<div class='center'><p>Once you've chosen a pirate, you’ll be shown the ship they are robbing. You will never rob the same ship twice. Ships can be told apart from one another by the image on them. These are the goods that they sell. See, this ship has a travel mug on it. </p><p> You’ll have to remember which island you saw each ship on. You will win more gold coins and hence more bonus money if you remember correctly! To help you remember, you can imagine a story. For example, here, you could imagine a mug full of water in the desert. Or, as another example, if on the forest island, your pirate robbed a ship with an apple on it, you could imagine an apple falling from a tree in the forest. </p><p><img src='run_exp/static/images/tutorial/example_probe.png' height='500'></p></div>","","","","","","","","","","","","","","","","","",""
"","html-keyboard-response","39","233277","0.0-35.0-3.0","""event"",""trial"",""time""
""fullscreenenter"",""0"",""3441""
","
","
","""event"",""trial"",""time""
""fullscreenenter"",""0"",""3441""
","
","1618","<div class='center'><p>Once you've chosen a pirate, you’ll be shown the ship they are robbing. You will never rob the same ship twice. Ships can be told apart from one another by the image on them. These are the goods that they sell. See, this ship has a travel mug on it. </p><p> You’ll have to remember which island you saw each ship on. You will win more gold coins and hence more bonus money if you remember correctly! To help you remember, you can imagine a story. For example, here, you could imagine a mug full of water in the desert. Or, as another example, if on the forest island, your pirate robbed a ship with an apple on it, you could imagine an apple falling from a tree in the forest. </p><p><img src='run_exp/static/images/tutorial/example_probe.png' height='500'></p><p><b>[Press the space bar to continue]</b></p></div>","32","","","","","","","","","","","","","","","","","","","","","","",""
"","instruc11","40","249860","0.0-35.0-4.0","""event"",""trial"",""time""
""fullscreenenter"",""0"",""3441""
","
","
","""event"",""trial"",""time""
""fullscreenenter"",""0"",""3441""
","
","null","run_exp/static/audio/clip_13_changepoint.m4a","null","","","","","<div class='center'><p>How successful a pirate is at robbing ships will depend on the island you’re on.</p><p> A pirate may have visited this island many times before and gained a lot of practice robbing ships there.</p><p>So, they’re more likely to be successful than a pirate who has never visited the island before.</p></div>","","","","","","","","","","","","","","","","","",""
"","html-keyboard-response","41","251283","0.0-35.0-5.0","""event"",""trial"",""time""
""fullscreenenter"",""0"",""3441""
","
","
","""event"",""trial"",""time""
""fullscreenenter"",""0"",""3441""
","
","1421.6000000014901","<div class='center'><p>How successful a pirate is at robbing ships will depend on the island you’re on.</p><p> A pirate may have visited this island many times before and gained a lot of practice robbing ships there.</p><p>So, they’re more likely to be successful than a pirate who has never visited the island before.</p><p><b>[Press the space bar to continue]</b></p></div>","32","","","","","","","","","","","","","","","","","","","","","","",""
"","instruc12","42","292585","0.0-35.0-6.0","""event"",""trial"",""time""
""fullscreenenter"",""0"",""3441""
","
","
","""event"",""trial"",""time""
""fullscreenenter"",""0"",""3441""
","
","null","run_exp/static/audio/clip_14_drift.m4a","null","","","","","<div class='center'><p>How successful a pirate is at robbing ships can also change over the time spent on the island. </p><p> Ships may hear from islanders about the pirates coming and will improve their protections against the attack. This may make it harder to rob them.</p><p> Ships may also become lazy and weaken the strength of their protections. This may make it easier to rob them.</p><br><p>Things are always changing on the high seas! So, try your best to pay attention!</p><p><img src='run_exp/static/images/tutorial/contingency.png' height='500'></p></div>","","","","","","","","","","","","","","","","","",""
"","html-keyboard-response","43","293683","0.0-35.0-7.0","""event"",""trial"",""time""
""fullscreenenter"",""0"",""3441""
","
","
","""event"",""trial"",""time""
""fullscreenenter"",""0"",""3441""
","
","1096.0999999996275","<div class='center'><p>How successful a pirate is at robbing ships can also change over the time spent on the island. </p><p> Ships may hear from islanders about the pirates coming and will improve their protections against the attack. This may make it harder to rob them.</p><p> Ships may also become lazy and weaken the strength of their protections. This may make it easier to rob them.</p><br><p>Things are always changing on the high seas! So, try your best to pay attention!</p><p><img src='run_exp/static/images/tutorial/contingency.png' height='500'></p><p><b>[Press the space bar to continue]</b></p></div>","32","","","","","","","","","","","","","","","","","","","","","","",""
"","instruc13","44","328994","0.0-35.0-8.0","""event"",""trial"",""time""
""fullscreenenter"",""0"",""3441""
","
","
","""event"",""trial"",""time""
""fullscreenenter"",""0"",""3441""
","
","null","run_exp/static/audio/clip_15_summary.m4a","null","","","","","<div class='center'><p>Let's go over the instructions quickly again. You have two important things to do: </p><b><p> 1. Pick the pirate who is the best at robbing ships on the current island. </p></b><b><p> 2. Remember on which island a ship was robbed.</p> </b><p>The amount of bonus money you can win depends on both.</p><p><br><p>Let’s try a practice game. The game will start by showing you the pirates. First, pick a pirate using the <b> 1, 2, 3 </b> keys on your keyboard. When you are shown a ship, try to remember which island you’re on by making up a story.</p><p>This is just a practice game, so you’re not playing for money. </p><p> Good luck! This game will be very difficult but try your best!</p></div>","","","","","","","","","","","","","","","","","",""
"","html-keyboard-response","45","329571","0.0-35.0-9.0","""event"",""trial"",""time""
""fullscreenenter"",""0"",""3441""
","
","
","""event"",""trial"",""time""
""fullscreenenter"",""0"",""3441""
","
","574.9000000003725","<div class='center'><p>Let's go over the instructions quickly again. You have two important things to do: </p><b><p> 1. Pick the pirate who is the best at robbing ships on the current island. </p></b><b><p> 2. Remember on which island a ship was robbed.</p> </b><p>The amount of bonus money you can win depends on both.</p><p><br><p>Let’s try a practice game. The game will start by showing you the pirates. First, pick a pirate using the <b> 1, 2, 3 </b> keys on your keyboard. When you are shown a ship, try to remember which island you’re on by making up a story.</p><p>This is just a practice game, so you’re not playing for money. </p><p> Good luck! This game will be very difficult but try your best!</p><p><b>[Press the space bar to continue]</b></p></div>","32","","","","","","","","","","","","","","","","","","","","","","",""
"","do_welcome","46","333579","0.0-35.0-10.0","""event"",""trial"",""time""
""fullscreenenter"",""0"",""3441""
","
","
","""event"",""trial"",""time""
""fullscreenenter"",""0"",""3441""
","
","null","","","","","","","","null","","","","","","","","","","","","","","","","",""
"","do_trial","47","340053","0.0-35.0-11.0","""event"",""trial"",""time""
""fullscreenenter"",""0"",""3441""
","
","
","""event"",""trial"",""time""
""fullscreenenter"",""0"",""3441""
","
","1966","","","","","","","","51","1,0,0","","","","","","","","","","","","","","","",""
"","html-keyboard-response","48","341055","0.0-36.0-0.0","""event"",""trial"",""time""
""fullscreenenter"",""0"",""3441""
","
","
","""event"",""trial"",""time""
""fullscreenenter"",""0"",""3441""
","
","null","<p></p>","null","","","","","","","","","","","","","","","","","","","","","","",""
"","do_trial","49","347799","0.0-36.0-1.0","""event"",""trial"",""time""
""fullscreenenter"",""0"",""3441""
","
","
","""event"",""trial"",""time""
""fullscreenenter"",""0"",""3441""
","
","2237.7999999988824","","","","","","","","49","1,1,0","","","","","","","","","","","","","","","",""
"","html-keyboard-response","50","348801","0.0-37.0-0.0","""event"",""trial"",""time""
""fullscreenenter"",""0"",""3441""
","
","
","""event"",""trial"",""time""
""fullscreenenter"",""0"",""3441""
","
","null","<p></p>","null","","","","","","","","","","","","","","","","","","","","","","",""
"","do_trial","51","355290","0.0-37.0-1.0","""event"",""trial"",""time""
""fullscreenenter"",""0"",""3441""
","
","
","""event"",""trial"",""time""
""fullscreenenter"",""0"",""3441""
","
","1981.2000000011176","","","","","","","","51","1,0,1","","","","","","","","","","","","","","","",""
"","html-keyboard-response","52","356291","0.0-38.0-0.0","""event"",""trial"",""time""
""fullscreenenter"",""0"",""3441""
","
","
","""event"",""trial"",""time""
""fullscreenenter"",""0"",""3441""
","
","null","<p></p>","null","","","","","","","","","","","","","","","","","","","","","","",""
"","do_trial","53","363210","0.0-38.0-1.0","""event"",""trial"",""time""
""fullscreenenter"",""0"",""3441""
","
","
","""event"",""trial"",""time""
""fullscreenenter"",""0"",""3441""
","
","2411.2999999988824","","","","","","","","51","0,1,0","","","","","","","","","","","","","","","",""
"","html-keyboard-response","54","364212","0.0-39.0-0.0","""event"",""trial"",""time""
""fullscreenenter"",""0"",""3441""
","
","
","""event"",""trial"",""time""
""fullscreenenter"",""0"",""3441""
","
","null","<p></p>","null","","","","","","","","","","","","","","","","","","","","","","",""
"","do_trial","55","369666","0.0-39.0-1.0","""event"",""trial"",""time""
""fullscreenenter"",""0"",""3441""
","
","
","""event"",""trial"",""time""
""fullscreenenter"",""0"",""3441""
","
","947.8000000007451","","","","","","","","49","1,0,0","","","","","","","","","","","","","","","",""
"","do_bye","56","371178","0.0-40.0-0.0","""event"",""trial"",""time""
""fullscreenenter"",""0"",""3441""
","
","
","""event"",""trial"",""time""
""fullscreenenter"",""0"",""3441""
","
","null","","","","","","","","null","","","","","","","","","","","","","","","","",""
"","do_travel","57","380182","0.0-40.0-1.0","""event"",""trial"",""time""
""fullscreenenter"",""0"",""3441""
","
","
","""event"",""trial"",""time""
""fullscreenenter"",""0"",""3441""
","
","null","","","","","","","","null","","","","","","","","","","","","","","","","",""
"","do_welcome","58","384189","0.0-40.0-2.0","""event"",""trial"",""time""
""fullscreenenter"",""0"",""3441""
","
","
","""event"",""trial"",""time""
""fullscreenenter"",""0"",""3441""
","
","null","","","","","","","","null","","","","","","","","","","","","","","","","",""
"","do_trial","59","391550","0.0-40.0-3.0","""event"",""trial"",""time""
""fullscreenenter"",""0"",""3441""
","
","
","""event"",""trial"",""time""
""fullscreenenter"",""0"",""3441""
","
","2854","","","","","","","","50","1,0,0","","","","","","","","","","","","","","","",""
"","html-keyboard-response","60","392552","0.0-41.0-0.0","""event"",""trial"",""time""
""fullscreenenter"",""0"",""3441""
","
","
","""event"",""trial"",""time""
""fullscreenenter"",""0"",""3441""
","
","null","<p></p>","null","","","","","","","","","","","","","","","","","","","","","","",""
"","do_trial","61","397541","0.0-41.0-1.0","""event"",""trial"",""time""
""fullscreenenter"",""0"",""3441""
","
","
","""event"",""trial"",""time""
""fullscreenenter"",""0"",""3441""
","
","482","","","","","","","","51","1,0,1","","","","","","","","","","","","","","","",""
"","html-keyboard-response","62","398543","0.0-42.0-0.0","""event"",""trial"",""time""
""fullscreenenter"",""0"",""3441""
","
","
","""event"",""trial"",""time""
""fullscreenenter"",""0"",""3441""
","
","null","<p></p>","null","","","","","","","","","","","","","","","","","","","","","","",""
"","do_trial","63","404924","0.0-42.0-1.0","""event"",""trial"",""time""
""fullscreenenter"",""0"",""3441""
","
","
","""event"",""trial"",""time""
""fullscreenenter"",""0"",""3441""
","
","1874.5999999996275","","","","","","","","49","1,1,0","","","","","","","","","","","","","","","",""
"","html-keyboard-response","64","405926","0.0-43.0-0.0","""event"",""trial"",""time""
""fullscreenenter"",""0"",""3441""
","
","
","""event"",""trial"",""time""
""fullscreenenter"",""0"",""3441""
","
","null","<p></p>","null","","","","","","","","","","","","","","","","","","","","","","",""
"","do_trial","65","411686","0.0-43.0-1.0","""event"",""trial"",""time""
""fullscreenenter"",""0"",""3441""
","
","
","""event"",""trial"",""time""
""fullscreenenter"",""0"",""3441""
","
","1252.9000000003725","","","","","","","","51","0,0,1","","","","","","","","","","","","","","","",""
"","html-keyboard-response","66","412688","0.0-44.0-0.0","""event"",""trial"",""time""
""fullscreenenter"",""0"",""3441""
","
","
","""event"",""trial"",""time""
""fullscreenenter"",""0"",""3441""
","
","null","<p></p>","null","","","","","","","","","","","","","","","","","","","","","","",""
"","do_trial","67","417811","0.0-44.0-1.0","""event"",""trial"",""time""
""fullscreenenter"",""0"",""3441""
","
","
","""event"",""trial"",""time""
""fullscreenenter"",""0"",""3441""
","
","613.4000000003725","","","","","","","","49","1,0,1","","","","","","","","","","","","","","","",""
"","html-keyboard-response","68","425421","0.0-45.0-0.0","""event"",""trial"",""time""
""fullscreenenter"",""0"",""3441""
","
","
","""event"",""trial"",""time""
""fullscreenenter"",""0"",""3441""
","
","7607.4000000003725","<div class='center'><p><img src='run_exp/static/images/tutorial/prac_best_pirate.png'  height='500'></p></div>","49","","","","","","","","","","","","","","","","","","","","","","",""
"","html-keyboard-response","69","428369","0.0-46.0-0.0","""event"",""trial"",""time""
""fullscreenenter"",""0"",""3441""
","
","
","""event"",""trial"",""time""
""fullscreenenter"",""0"",""3441""
","
","2946.9000000003725","<div class='center'><p>That's correct! Red beard was the best.</p><p><b>[Press the space bar to continue]</b></p></div>","32","","","","","","","","","","","","","","","","","","","","","","",""
"","html-keyboard-response","70","433067","0.0-46.0-1.0","""event"",""trial"",""time""
""fullscreenenter"",""0"",""3441""
","
","
","""event"",""trial"",""time""
""fullscreenenter"",""0"",""3441""
","
","4696","<div class='center'><p><img src='run_exp/static/images/tutorial/prac_source.png'  height='500'></p></div>","50","","","","","","","","","","","","","","","","","","","","","","",""
"","html-keyboard-response","71","435903","0.0-47.0-0.0","""event"",""trial"",""time""
""fullscreenenter"",""0"",""3441""
","
","
","""event"",""trial"",""time""
""fullscreenenter"",""0"",""3441""
","
","2833.7000000011176","<div class='center'><p>That's correct! You saw this ship on the cavern island.</p><p><b>[Press the space bar to continue]</b></p></div>","32","","","","","","","","","","","","","","","","","","","","","","",""
"","quiz_beginning","72","447471","0.0-47.0-1.0","""event"",""trial"",""time""
""fullscreenenter"",""0"",""3441""
","
","
","""event"",""trial"",""time""
""fullscreenenter"",""0"",""3441""
","
","null","run_exp/static/audio/clip_16_quiz_intro.m4a","null","","","","","<div class='center'><p>Good job on the practice game! Now, you will be asked some true or false questions to make sure you really understand the rules of the game.</p><p> Press <b>'1'</b> on the keyboard for true and press <b>'2'</b> for false.</p></div>","","","","","","","","","","","","","","","","","",""
"","audio-keyboard-response","73","454075","0.0-47.0-2.0","""event"",""trial"",""time""
""fullscreenenter"",""0"",""3441""
","
","
","""event"",""trial"",""time""
""fullscreenenter"",""0"",""3441""
","
","6601.699999999255","run_exp/static/audio/clip_17_q1.m4a","49","","","","","","","","","","","","","","","","","","","","","","",""
"","correct","74","456664","0.0-48.0-0.0","""event"",""trial"",""time""
""fullscreenenter"",""0"",""3441""
","
","
","""event"",""trial"",""time""
""fullscreenenter"",""0"",""3441""
","
","null","run_exp/static/audio/clip_18_correct.m4a","null","","","","","<div class='center'><p>That's correct!</p></div>","","","","","","","","","","","","","","","","","",""
"","html-keyboard-response","75","457732","0.0-48.0-1.0","""event"",""trial"",""time""
""fullscreenenter"",""0"",""3441""
","
","
","""event"",""trial"",""time""
""fullscreenenter"",""0"",""3441""
","
","1066.8999999985099","<div class='center'><p>That's correct!</p><p><b>[Press the space bar to continue]</b></p></div>","32","","","","","","","","","","","","","","","","","","","","","","",""
"","audio-keyboard-response","76","470536","0.0-48.0-2.0","""event"",""trial"",""time""
""fullscreenenter"",""0"",""3441""
","
","
","""event"",""trial"",""time""
""fullscreenenter"",""0"",""3441""
","
","12802.799999998882","run_exp/static/audio/clip_20_q2.m4a","50","","","","","","","","","","","","","","","","","","","","","","",""
"","correct","77","473103","0.0-49.0-0.0","""event"",""trial"",""time""
""fullscreenenter"",""0"",""3441""
","
","
","""event"",""trial"",""time""
""fullscreenenter"",""0"",""3441""
","
","null","run_exp/static/audio/clip_18_correct.m4a","null","","","","","<div class='center'><p>That's correct!</p></div>","","","","","","","","","","","","","","","","","",""
"","html-keyboard-response","78","474106","0.0-49.0-1.0","""event"",""trial"",""time""
""fullscreenenter"",""0"",""3441""
","
","
","""event"",""trial"",""time""
""fullscreenenter"",""0"",""3441""
","
","1001.9000000003725","<div class='center'><p>That's correct!</p><p><b>[Press the space bar to continue]</b></p></div>","32","","","","","","","","","","","","","","","","","","","","","","",""
"","audio-keyboard-response","79","479721","0.0-49.0-2.0","""event"",""trial"",""time""
""fullscreenenter"",""0"",""3441""
","
","
","""event"",""trial"",""time""
""fullscreenenter"",""0"",""3441""
","
","5613.5","run_exp/static/audio/clip_22_q3.m4a","50","","","","","","","","","","","","","","","","","","","","","","",""
"","correct","80","482299","0.0-50.0-0.0","""event"",""trial"",""time""
""fullscreenenter"",""0"",""3441""
","
","
","""event"",""trial"",""time""
""fullscreenenter"",""0"",""3441""
","
","null","run_exp/static/audio/clip_18_correct.m4a","null","","","","","<div class='center'><p>That's correct!</p></div>","","","","","","","","","","","","","","","","","",""
"","html-keyboard-response","81","483084","0.0-50.0-1.0","""event"",""trial"",""time""
""fullscreenenter"",""0"",""3441""
","
","
","""event"",""trial"",""time""
""fullscreenenter"",""0"",""3441""
","
","783.7999999988824","<div class='center'><p>That's correct!</p><p><b>[Press the space bar to continue]</b></p></div>","32","","","","","","","","","","","","","","","","","","","","","","",""
"","audio-keyboard-response","82","493929","0.0-50.0-2.0","""event"",""trial"",""time""
""fullscreenenter"",""0"",""3441""
","
","
","""event"",""trial"",""time""
""fullscreenenter"",""0"",""3441""
","
","10843.599999999627","run_exp/static/audio/clip_24_q4.m4a","49","","","","","","","","","","","","","","","","","","","","","","",""
"","correct","83","496602","0.0-51.0-0.0","""event"",""trial"",""time""
""fullscreenenter"",""0"",""3441""
","
","
","""event"",""trial"",""time""
""fullscreenenter"",""0"",""3441""
","
","null","run_exp/static/audio/clip_18_correct.m4a","null","","","","","<div class='center'><p>That's correct!</p></div>","","","","","","","","","","","","","","","","","",""
"","html-keyboard-response","84","499983","0.0-51.0-1.0","""event"",""trial"",""time""
""fullscreenenter"",""0"",""3441""
","
","
","""event"",""trial"",""time""
""fullscreenenter"",""0"",""3441""
","
","3379.4000000003725","<div class='center'><p>That's correct!</p><p><b>[Press the space bar to continue]</b></p></div>","32","","","","","","","","","","","","","","","","","","","","","","",""
"","q_all_corr","85","508677","0.0-52.0-0.0","""event"",""trial"",""time""
""fullscreenenter"",""0"",""3441""
","
","
","""event"",""trial"",""time""
""fullscreenenter"",""0"",""3441""
","
","null","run_exp/static/audio/clip_27_quiz_all_correct.m4a","null","","","","","<div class='center'><p>Good job! You’re now ready to move on to the real game! Remember this game will be difficult but don't get discouraged and try your best!</p></div>","","","","","","","","","","","","","","","","","",""
"","html-keyboard-response","86","509673","0.0-52.0-1.0","""event"",""trial"",""time""
""fullscreenenter"",""0"",""3441""
","
","
","""event"",""trial"",""time""
""fullscreenenter"",""0"",""3441""
","
","994.3000000007451","<div class='center'><p>Good job! You’re now ready to move on to the real game! Remember this game will be difficult but don't get discouraged and try your best!</p><p><b>[Press the space bar to continue]</b></p></div>","32","","","","","","","","","","","","","","","","","","","","","","",""
"","do_welcome","87","513679","0.0-53.0-0.0","""event"",""trial"",""time""
""fullscreenenter"",""0"",""3441""
","
","
","""event"",""trial"",""time""
""fullscreenenter"",""0"",""3441""
","
","null","","","","","","","","null","","","","","","","","","","","","","","","","",""
"","do_trial","88","520744","0.0-54.0-0.0","""event"",""trial"",""time""
""fullscreenenter"",""0"",""3441""
","
","
","""event"",""trial"",""time""
""fullscreenenter"",""0"",""3441""
","
","2503.300000000745","","","","","","","","50","1,0,0","0","countryside","0","probe-203","0.6","0.3","0.1","0","","","","","","","",""
"","html-keyboard-response","89","521746","0.0-54.0-1.0","""event"",""trial"",""time""
""fullscreenenter"",""0"",""3441""
","
","
","""event"",""trial"",""time""
""fullscreenenter"",""0"",""3441""
","
","null","<p></p>","null","","","","","","","","","","","","","","","","","","","","","","",""
"","do_trial","90","527156","0.0-55.0-0.0","""event"",""trial"",""time""
""fullscreenenter"",""0"",""3441""
","
","
","""event"",""trial"",""time""
""fullscreenenter"",""0"",""3441""
","
","848","","","","","","","","49","0,1,0","0","countryside","1","probe-22","0.40991571181559083","0.4352282888237849","0.0829070157719199","0","","","","","","","",""
"","html-keyboard-response","91","528158","0.0-55.0-1.0","""event"",""trial"",""time""
""fullscreenenter"",""0"",""3441""
","
","
","""event"",""trial"",""time""
""fullscreenenter"",""0"",""3441""
","
","null","<p></p>","null","","","","","","","","","","","","","","","","","","","","","","",""
"","do_trial","92","533507","0.0-56.0-0.0","""event"",""trial"",""time""
""fullscreenenter"",""0"",""3441""
","
","
","""event"",""trial"",""time""
""fullscreenenter"",""0"",""3441""
","
","789.0999999996275","","","","","","","","51","0,0,0","0","countryside","2","probe-118","0.3810286420765776","0.3360890059831448","0.11162912778996908","0","","","","","","","",""
"","html-keyboard-response","93","534509","0.0-56.0-1.0","""event"",""trial"",""time""
""fullscreenenter"",""0"",""3441""
","
","
","""event"",""trial"",""time""
""fullscreenenter"",""0"",""3441""
","
","null","<p></p>","null","","","","","","","","","","","","","","","","","","","","","","",""
"","do_trial","94","540214","0.0-57.0-0.0","""event"",""trial"",""time""
""fullscreenenter"",""0"",""3441""
","
","
","""event"",""trial"",""time""
""fullscreenenter"",""0"",""3441""
","
","1145","","","","","","","","49","0,1,0","0","countryside","3","probe-76","0.3936456174647979","0.5029155585418666","0.17787731234301812","0","","","","","","","",""
"","html-keyboard-response","95","541216","0.0-57.0-1.0","""event"",""trial"",""time""
""fullscreenenter"",""0"",""3441""
","
","
","""event"",""trial"",""time""
""fullscreenenter"",""0"",""3441""
","
","null","<p></p>","null","","","","","","","","","","","","","","","","","","","","","","",""
"","do_trial","96","546632","0.0-58.0-0.0","""event"",""trial"",""time""
""fullscreenenter"",""0"",""3441""
","
","
","""event"",""trial"",""time""
""fullscreenenter"",""0"",""3441""
","
","856.1000000014901","","","","","","","","50","1,1,0","0","countryside","4","probe-215","0.5791728651326704","0.4437532946832926","0.13139469275774127","1","","","","","","","",""
"","html-keyboard-response","97","547634","0.0-58.0-1.0","""event"",""trial"",""time""
""fullscreenenter"",""0"",""3441""
","
","
","""event"",""trial"",""time""
""fullscreenenter"",""0"",""3441""
","
","null","<p></p>","null","","","","","","","","","","","","","","","","","","","","","","",""
"","do_trial","98","553064","0.0-59.0-0.0","""event"",""trial"",""time""
""fullscreenenter"",""0"",""3441""
","
","
","""event"",""trial"",""time""
""fullscreenenter"",""0"",""3441""
","
","870.0999999996275","","","","","","","","50","1,0,0","0","countryside","5","probe-157","0.5648936549536766","0.44453387417626","0.11983883461622143","0","","","","","","","",""
"","html-keyboard-response","99","554066","0.0-59.0-1.0","""event"",""trial"",""time""
""fullscreenenter"",""0"",""3441""
","
","
","""event"",""trial"",""time""
""fullscreenenter"",""0"",""3441""
","
","null","<p></p>","null","","","","","","","","","","","","","","","","","","","","","","",""
"","do_trial","100","559523","0.0-60.0-0.0","""event"",""trial"",""time""
""fullscreenenter"",""0"",""3441""
","
","
","""event"",""trial"",""time""
""fullscreenenter"",""0"",""3441""
","
","897","","","","","","","","49","0,0,0","0","countryside","6","probe-89","0.5523979662182736","0.3624822934182849","0.07651455594817078","0","","","","","","","",""
"","html-keyboard-response","101","560524","0.0-60.0-1.0","""event"",""trial"",""time""
""fullscreenenter"",""0"",""3441""
","
","
","""event"",""trial"",""time""
""fullscreenenter"",""0"",""3441""
","
","null","<p></p>","null","","","","","","","","","","","","","","","","","","","","","","",""
"","do_trial","102","565428","0.0-61.0-0.0","""event"",""trial"",""time""
""fullscreenenter"",""0"",""3441""
","
","
","""event"",""trial"",""time""
""fullscreenenter"",""0"",""3441""
","
","345.40000000037253","","","","","","","","51","1,0,0","0","countryside","7","probe-54","0.6669414528956829","0.3999071903026787","0.09444661041118252","0","","","","","","","",""
"","html-keyboard-response","103","566430","0.0-61.0-1.0","""event"",""trial"",""time""
""fullscreenenter"",""0"",""3441""
","
","
","""event"",""trial"",""time""
""fullscreenenter"",""0"",""3441""
","
","null","<p></p>","null","","","","","","","","","","","","","","","","","","","","","","",""
"","do_trial","104","571374","0.0-62.0-0.0","""event"",""trial"",""time""
""fullscreenenter"",""0"",""3441""
","
","
","""event"",""trial"",""time""
""fullscreenenter"",""0"",""3441""
","
","383.40000000037253","","","","","","","","50","0,0,0","0","countryside","8","probe-134","0.690148273722695","0.4037965420186651","0.07228536809086755","0","","","","","","","",""
"","html-keyboard-response","105","572376","0.0-62.0-1.0","""event"",""trial"",""time""
""fullscreenenter"",""0"",""3441""
","
","
","""event"",""trial"",""time""
""fullscreenenter"",""0"",""3441""
","
","null","<p></p>","null","","","","","","","","","","","","","","","","","","","","","","",""
"","do_trial","106","577589","0.0-63.0-0.0","""event"",""trial"",""time""
""fullscreenenter"",""0"",""3441""
","
","
","""event"",""trial"",""time""
""fullscreenenter"",""0"",""3441""
","
","650.9000000003725","","","","","","","","49","0,1,0","0","countryside","9","probe-182","0.6854936875948914","0.4438766763441101","0.07999957743777157","0","","","","","","","",""
"","html-keyboard-response","107","578591","0.0-63.0-1.0","""event"",""trial"",""time""
""fullscreenenter"",""0"",""3441""
","
","
","""event"",""trial"",""time""
""fullscreenenter"",""0"",""3441""
","
","null","<p></p>","null","","","","","","","","","","","","","","","","","","","","","","",""
"","do_trial","108","583563","0.0-64.0-0.0","""event"",""trial"",""time""
""fullscreenenter"",""0"",""3441""
","
","
","""event"",""trial"",""time""
""fullscreenenter"",""0"",""3441""
","
","411.90000000037253","","","","","","","","50","1,1,0","0","countryside","10","probe-161","0.7240220986146809","0.5036830125224457","0.1621898096137795","1","","","","","","","",""
"","html-keyboard-response","109","584565","0.0-64.0-1.0","""event"",""trial"",""time""
""fullscreenenter"",""0"",""3441""
","
","
","""event"",""trial"",""time""
""fullscreenenter"",""0"",""3441""
","
","null","<p></p>","null","","","","","","","","","","","","","","","","","","","","","","",""
"","do_trial","110","589586","0.0-65.0-0.0","""event"",""trial"",""time""
""fullscreenenter"",""0"",""3441""
","
","
","""event"",""trial"",""time""
""fullscreenenter"",""0"",""3441""
","
","460.30000000074506","","","","","","","","50","0,1,1","0","countryside","11","probe-169","0.55173407064619","0.41192329920791976","0.12234922880625876","1","","","","","","","",""
"","html-keyboard-response","111","590588","0.0-65.0-1.0","""event"",""trial"",""time""
""fullscreenenter"",""0"",""3441""
","
","
","""event"",""trial"",""time""
""fullscreenenter"",""0"",""3441""
","
","null","<p></p>","null","","","","","","","","","","","","","","","","","","","","","","",""
"","do_trial","112","595701","0.0-66.0-0.0","""event"",""trial"",""time""
""fullscreenenter"",""0"",""3441""
","
","
","""event"",""trial"",""time""
""fullscreenenter"",""0"",""3441""
","
","555.1999999992549","","","","","","","","50","1,1,0","0","countryside","12","probe-213","0.7285876086120702","0.51384283655686","0.1250643965816306","1","","","","","","","",""
"","html-keyboard-response","113","596703","0.0-66.0-1.0","""event"",""trial"",""time""
""fullscreenenter"",""0"",""3441""
","
","
","""event"",""trial"",""time""
""fullscreenenter"",""0"",""3441""
","
","null","<p></p>","null","","","","","","","","","","","","","","","","","","","","","","",""
"","do_trial","114","601704","0.0-67.0-0.0","""event"",""trial"",""time""
""fullscreenenter"",""0"",""3441""
","
","
","""event"",""trial"",""time""
""fullscreenenter"",""0"",""3441""
","
","438.09999999962747","","","","","","","","50","0,0,0","0","countryside","13","probe-55","0.6553812896856585","0.5151234079600766","0.14350947389266808","0","","","","","","","",""
"","html-keyboard-response","115","602706","0.0-67.0-1.0","""event"",""trial"",""time""
""fullscreenenter"",""0"",""3441""
","
","
","""event"",""trial"",""time""
""fullscreenenter"",""0"",""3441""
","
","null","<p></p>","null","","","","","","","","","","","","","","","","","","","","","","",""
"","do_trial","116","607727","0.0-68.0-0.0","""event"",""trial"",""time""
""fullscreenenter"",""0"",""3441""
","
","
","""event"",""trial"",""time""
""fullscreenenter"",""0"",""3441""
","
","460","","","","","","","","50","1,0,0","0","countryside","14","probe-74","0.681648065748982","0.3584205816262663","0.05114636284555411","0","","","","","","","",""
"","html-keyboard-response","117","608729","0.0-68.0-1.0","""event"",""trial"",""time""
""fullscreenenter"",""0"",""3441""
","
","
","""event"",""trial"",""time""
""fullscreenenter"",""0"",""3441""
","
","null","<p></p>","null","","","","","","","","","","","","","","","","","","","","","","",""
"","do_trial","118","613780","0.0-69.0-0.0","""event"",""trial"",""time""
""fullscreenenter"",""0"",""3441""
","
","
","""event"",""trial"",""time""
""fullscreenenter"",""0"",""3441""
","
","491.40000000037253","","","","","","","","50","1,0,0","0","countryside","15","probe-109","0.6398039787641427","0.40937042222718606","0.05640045152624258","0","","","","","","","",""
"","html-keyboard-response","119","614783","0.0-69.0-1.0","""event"",""trial"",""time""
""fullscreenenter"",""0"",""3441""
","
","
","""event"",""trial"",""time""
""fullscreenenter"",""0"",""3441""
","
","null","<p></p>","null","","","","","","","","","","","","","","","","","","","","","","",""
"","do_trial","120","620092","0.0-70.0-0.0","""event"",""trial"",""time""
""fullscreenenter"",""0"",""3441""
","
","
","""event"",""trial"",""time""
""fullscreenenter"",""0"",""3441""
","
","747.5","","","","","","","","50","1,0,1","0","countryside","16","probe-199","0.5558268779066915","0.25458119653181166","0.19893393031442086","0","","","","","","","",""
"","html-keyboard-response","121","621094","0.0-70.0-1.0","""event"",""trial"",""time""
""fullscreenenter"",""0"",""3441""
","
","
","""event"",""trial"",""time""
""fullscreenenter"",""0"",""3441""
","
","null","<p></p>","null","","","","","","","","","","","","","","","","","","","","","","",""
"","do_trial","122","626222","0.0-71.0-0.0","""event"",""trial"",""time""
""fullscreenenter"",""0"",""3441""
","
","
","""event"",""trial"",""time""
""fullscreenenter"",""0"",""3441""
","
","568.5","","","","","","","","49","1,0,0","0","countryside","17","probe-114","0.6100204228825035","0.37422725350634867","0.17039682524964284","1","","","","","","","",""
"","html-keyboard-response","123","627224","0.0-71.0-1.0","""event"",""trial"",""time""
""fullscreenenter"",""0"",""3441""
","
","
","""event"",""trial"",""time""
""fullscreenenter"",""0"",""3441""
","
","null","<p></p>","null","","","","","","","","","","","","","","","","","","","","","","",""
"","do_trial","124","632364","0.0-72.0-0.0","""event"",""trial"",""time""
""fullscreenenter"",""0"",""3441""
","
","
","""event"",""trial"",""time""
""fullscreenenter"",""0"",""3441""
","
","578.8000000007451","","","","","","","","49","1,0,0","0","countryside","18","probe-122","0.6881305197214559","0.2584826551437869","0.09613738658999285","1","","","","","","","",""
"","html-keyboard-response","125","633366","0.0-72.0-1.0","""event"",""trial"",""time""
""fullscreenenter"",""0"",""3441""
","
","
","""event"",""trial"",""time""
""fullscreenenter"",""0"",""3441""
","
","null","<p></p>","null","","","","","","","","","","","","","","","","","","","","","","",""
"","do_trial","126","638652","0.0-73.0-0.0","""event"",""trial"",""time""
""fullscreenenter"",""0"",""3441""
","
","
","""event"",""trial"",""time""
""fullscreenenter"",""0"",""3441""
","
","727","","","","","","","","49","0,0,0","0","countryside","19","probe-66","0.7479573634973548","0.30552054165281556","0.051322505794291574","0","","","","","","","",""
"","html-keyboard-response","127","639654","0.0-73.0-1.0","""event"",""trial"",""time""
""fullscreenenter"",""0"",""3441""
","
","
","""event"",""trial"",""time""
""fullscreenenter"",""0"",""3441""
","
","null","<p></p>","null","","","","","","","","","","","","","","","","","","","","","","",""
"","do_trial","128","644857","0.0-74.0-0.0","""event"",""trial"",""time""
""fullscreenenter"",""0"",""3441""
","
","
","""event"",""trial"",""time""
""fullscreenenter"",""0"",""3441""
","
","642","","","","","","","","49","0,0,0","0","countryside","20","probe-120","0.7213471417096932","0.20924321568625442","0.07998790325196223","0","","","","","","","",""
"","html-keyboard-response","129","645859","0.0-74.0-1.0","""event"",""trial"",""time""
""fullscreenenter"",""0"",""3441""
","
","
","""event"",""trial"",""time""
""fullscreenenter"",""0"",""3441""
","
","null","<p></p>","null","","","","","","","","","","","","","","","","","","","","","","",""
"","do_trial","130","650935","0.0-75.0-0.0","""event"",""trial"",""time""
""fullscreenenter"",""0"",""3441""
","
","
","""event"",""trial"",""time""
""fullscreenenter"",""0"",""3441""
","
","515.5","","","","","","","","50","1,0,0","0","countryside","21","probe-77","0.6997524200067803","0.20147569987055455","0.05733259965158777","0","","","","","","","",""
"","html-keyboard-response","131","651937","0.0-75.0-1.0","""event"",""trial"",""time""
""fullscreenenter"",""0"",""3441""
","
","
","""event"",""trial"",""time""
""fullscreenenter"",""0"",""3441""
","
","null","<p></p>","null","","","","","","","","","","","","","","","","","","","","","","",""
"","do_trial","132","656728","0.0-76.0-0.0","""event"",""trial"",""time""
""fullscreenenter"",""0"",""3441""
","
","
","""event"",""trial"",""time""
""fullscreenenter"",""0"",""3441""
","
","230.69999999925494","","","","","","","","51","1,0,0","0","countryside","22","probe-130","0.7515429819880649","0.3073796026643279","0.13116084925012733","0","","","","","","","",""
"","html-keyboard-response","133","657730","0.0-76.0-1.0","""event"",""trial"",""time""
""fullscreenenter"",""0"",""3441""
","
","
","""event"",""trial"",""time""
""fullscreenenter"",""0"",""3441""
","
","null","<p></p>","null","","","","","","","","","","","","","","","","","","","","","","",""
"","do_trial","134","662700","0.0-77.0-0.0","""event"",""trial"",""time""
""fullscreenenter"",""0"",""3441""
","
","
","""event"",""trial"",""time""
""fullscreenenter"",""0"",""3441""
","
","410.09999999962747","","","","","","","","49","1,1,0","0","countryside","23","probe-21","0.6827713001159273","0.1828048636675028","0.24235871044155283","1","","","","","","","",""
"","html-keyboard-response","135","663702","0.0-77.0-1.0","""event"",""trial"",""time""
""fullscreenenter"",""0"",""3441""
","
","
","""event"",""trial"",""time""
""fullscreenenter"",""0"",""3441""
","
","null","<p></p>","null","","","","","","","","","","","","","","","","","","","","","","",""
"","do_trial","136","668929","0.0-78.0-0.0","""event"",""trial"",""time""
""fullscreenenter"",""0"",""3441""
","
","
","""event"",""trial"",""time""
""fullscreenenter"",""0"",""3441""
","
","667.3999999985099","","","","","","","","50","0,1,0","0","countryside","24","probe-111","0.764064671960324","0.17771203018722317","0.1915889904683598","1","","","","","","","",""
"","html-keyboard-response","137","669931","0.0-78.0-1.0","""event"",""trial"",""time""
""fullscreenenter"",""0"",""3441""
","
","
","""event"",""trial"",""time""
""fullscreenenter"",""0"",""3441""
","
","null","<p></p>","null","","","","","","","","","","","","","","","","","","","","","","",""
"","do_trial","138","675115","0.0-79.0-0.0","""event"",""trial"",""time""
""fullscreenenter"",""0"",""3441""
","
","
","""event"",""trial"",""time""
""fullscreenenter"",""0"",""3441""
","
","624.1999999992549","","","","","","","","50","1,0,0","0","countryside","25","probe-02","0.704560827666505","0.20476788711607108","0.05456109217802581","0","","","","","","","",""
"","html-keyboard-response","139","676117","0.0-79.0-1.0","""event"",""trial"",""time""
""fullscreenenter"",""0"",""3441""
","
","
","""event"",""trial"",""time""
""fullscreenenter"",""0"",""3441""
","
","null","<p></p>","null","","","","","","","","","","","","","","","","","","","","","","",""
"","do_trial","140","680949","0.0-80.0-0.0","""event"",""trial"",""time""
""fullscreenenter"",""0"",""3441""
","
","
","""event"",""trial"",""time""
""fullscreenenter"",""0"",""3441""
","
","269.6000000014901","","","","","","","","49","0,0,0","0","countryside","26","probe-222","0.6488742553193503","0.19041207149415879","0.08276035224852844","0","","","","","","","",""
"","html-keyboard-response","141","681951","0.0-80.0-1.0","""event"",""trial"",""time""
""fullscreenenter"",""0"",""3441""
","
","
","""event"",""trial"",""time""
""fullscreenenter"",""0"",""3441""
","
","null","<p></p>","null","","","","","","","","","","","","","","","","","","","","","","",""
"","do_trial","142","687239","0.0-81.0-0.0","""event"",""trial"",""time""
""fullscreenenter"",""0"",""3441""
","
","
","""event"",""trial"",""time""
""fullscreenenter"",""0"",""3441""
","
","729.0999999996275","","","","","","","","50","0,0,0","0","countryside","27","probe-80","0.752984943569274","0.3330397601062387","0.10447618663911859","0","","","","","","","",""
"","html-keyboard-response","143","688241","0.0-81.0-1.0","""event"",""trial"",""time""
""fullscreenenter"",""0"",""3441""
","
","
","""event"",""trial"",""time""
""fullscreenenter"",""0"",""3441""
","
","null","<p></p>","null","","","","","","","","","","","","","","","","","","","","","","",""
"","do_trial","144","693506","0.0-82.0-0.0","""event"",""trial"",""time""
""fullscreenenter"",""0"",""3441""
","
","
","""event"",""trial"",""time""
""fullscreenenter"",""0"",""3441""
","
","705.0999999996275","","","","","","","","49","1,0,1","0","countryside","28","probe-190","0.6524801770903195","0.40133760595775514","0.2067922021765917","1","","","","","","","",""
"","html-keyboard-response","145","694507","0.0-82.0-1.0","""event"",""trial"",""time""
""fullscreenenter"",""0"",""3441""
","
","
","""event"",""trial"",""time""
""fullscreenenter"",""0"",""3441""
","
","null","<p></p>","null","","","","","","","","","","","","","","","","","","","","","","",""
"","do_trial","146","699875","0.0-83.0-0.0","""event"",""trial"",""time""
""fullscreenenter"",""0"",""3441""
","
","
","""event"",""trial"",""time""
""fullscreenenter"",""0"",""3441""
","
","807.2999999988824","","","","","","","","49","1,0,0","0","countryside","29","probe-09","0.6217456402845698","0.4187806660028515","0.20725609107187754","1","","","","","","","",""
"","html-keyboard-response","147","700877","0.0-83.0-1.0","""event"",""trial"",""time""
""fullscreenenter"",""0"",""3441""
","
","
","""event"",""trial"",""time""
""fullscreenenter"",""0"",""3441""
","
","null","<p></p>","null","","","","","","","","","","","","","","","","","","","","","","",""
"","do_bye","148","702381","0.0-84.0-0.0","""event"",""trial"",""time""
""fullscreenenter"",""0"",""3441""
","
","
","""event"",""trial"",""time""
""fullscreenenter"",""0"",""3441""
","
","null","","","","","","","","null","","","","","","","","","","","","","","","","",""
"","break","149","707289","0.0-84.0-1.0","""event"",""trial"",""time""
""fullscreenenter"",""0"",""3441""
","
","
","""event"",""trial"",""time""
""fullscreenenter"",""0"",""3441""
","
","4905.5999999996275","<div class='center'><p>Time to take a quick break! You have 2 minutes to rest, but you can move on sooner if you'd like.</p><p> Press the <b>space bar</b> to continue.</p></div>","32","","","","","","","","","","","","","","","","","","","","","","",""
"","do_travel","150","716292","0.0-85.0-0.0","""event"",""trial"",""time""
""fullscreenenter"",""0"",""3441""
","
","
","""event"",""trial"",""time""
""fullscreenenter"",""0"",""3441""
","
","null","","","","","","","","null","","","","","","","","","","","","","","","","",""
"","do_welcome","151","720299","0.0-85.0-1.0","""event"",""trial"",""time""
""fullscreenenter"",""0"",""3441""
","
","
","""event"",""trial"",""time""
""fullscreenenter"",""0"",""3441""
","
","null","","","","","","","","null","","","","","","","","","","","","","","","","",""
"","do_trial","152","725876","0.0-86.0-0.0","""event"",""trial"",""time""
""fullscreenenter"",""0"",""3441""
","
","
","""event"",""trial"",""time""
""fullscreenenter"",""0"",""3441""
","
","1016.1999999992549","","","","","","","","50","1,0,0","1","forest","30","probe-28","1","0.48736255542827184","0.15701291845185453","0","","","","","","","",""
"","html-keyboard-response","153","726878","0.0-86.0-1.0","""event"",""trial"",""time""
""fullscreenenter"",""0"",""3441""
","
","
","""event"",""trial"",""time""
""fullscreenenter"",""0"",""3441""
","
","null","<p></p>","null","","","","","","","","","","","","","","","","","","","","","","",""
"","do_trial","154","731908","0.0-87.0-0.0","""event"",""trial"",""time""
""fullscreenenter"",""0"",""3441""
","
","
","""event"",""trial"",""time""
""fullscreenenter"",""0"",""3441""
","
","471.09999999962747","","","","","","","","51","1,0,0","1","forest","31","probe-154","1","0.3570320876807738","0.11651113809037869","0","","","","","","","",""
"","html-keyboard-response","155","732911","0.0-87.0-1.0","""event"",""trial"",""time""
""fullscreenenter"",""0"",""3441""
","
","
","""event"",""trial"",""time""
""fullscreenenter"",""0"",""3441""
","
","null","<p></p>","null","","","","","","","","","","","","","","","","","","","","","","",""
"","do_trial","156","737550","0.0-88.0-0.0","""event"",""trial"",""time""
""fullscreenenter"",""0"",""3441""
","
","
","""event"",""trial"",""time""
""fullscreenenter"",""0"",""3441""
","
","79.59999999962747","","","","","","","","49","1,0,0","1","forest","32","probe-140","1","0.28607643610130157","0.1580961426670787","1","","","","","","","",""
"","html-keyboard-response","157","738552","0.0-88.0-1.0","""event"",""trial"",""time""
""fullscreenenter"",""0"",""3441""
","
","
","""event"",""trial"",""time""
""fullscreenenter"",""0"",""3441""
","
","null","<p></p>","null","","","","","","","","","","","","","","","","","","","","","","",""
"","do_trial","158","744570","0.0-89.0-0.0","""event"",""trial"",""time""
""fullscreenenter"",""0"",""3441""
","
","
","""event"",""trial"",""time""
""fullscreenenter"",""0"",""3441""
","
","1458.4000000003725","","","","","","","","51","1,0,0","1","forest","33","probe-198","0.940827607185905","0.2318072634621218","0.15358706426209787","0","","","","","","","",""
"","html-keyboard-response","159","745572","0.0-89.0-1.0","""event"",""trial"",""time""
""fullscreenenter"",""0"",""3441""
","
","
","""event"",""trial"",""time""
""fullscreenenter"",""0"",""3441""
","
","null","<p></p>","null","","","","","","","","","","","","","","","","","","","","","","",""
"","do_trial","160","751358","0.0-90.0-0.0","""event"",""trial"",""time""
""fullscreenenter"",""0"",""3441""
","
","
","""event"",""trial"",""time""
""fullscreenenter"",""0"",""3441""
","
","1226.5999999996275","","","","","","","","50","1,1,0","1","forest","34","probe-33","0.8170005123334798","0.3528306825952126","0.11553059048822145","1","","","","","","","",""
"","html-keyboard-response","161","752360","0.0-90.0-1.0","""event"",""trial"",""time""
""fullscreenenter"",""0"",""3441""
","
","
","""event"",""trial"",""time""
""fullscreenenter"",""0"",""3441""
","
","null","<p></p>","null","","","","","","","","","","","","","","","","","","","","","","",""
"","do_trial","162","757386","0.0-91.0-0.0","""event"",""trial"",""time""
""fullscreenenter"",""0"",""3441""
","
","
","""event"",""trial"",""time""
""fullscreenenter"",""0"",""3441""
","
","466.40000000037253","","","","","","","","50","1,0,0","1","forest","35","probe-95","0.8434402739246758","0.2914001867005994","0.1499142164522248","0","","","","","","","",""
"","html-keyboard-response","163","758389","0.0-91.0-1.0","""event"",""trial"",""time""
""fullscreenenter"",""0"",""3441""
","
","
","""event"",""trial"",""time""
""fullscreenenter"",""0"",""3441""
","
","null","<p></p>","null","","","","","","","","","","","","","","","","","","","","","","",""
"","do_trial","164","763683","0.0-92.0-0.0","""event"",""trial"",""time""
""fullscreenenter"",""0"",""3441""
","
","
","""event"",""trial"",""time""
""fullscreenenter"",""0"",""3441""
","
","733.4000000003725","","","","","","","","51","1,1,0","1","forest","36","probe-179","0.6621406686557804","0.2706194440550525","0.1254613897135354","0","","","","","","","",""
"","html-keyboard-response","165","764685","0.0-92.0-1.0","""event"",""trial"",""time""
""fullscreenenter"",""0"",""3441""
","
","
","""event"",""trial"",""time""
""fullscreenenter"",""0"",""3441""
","
","null","<p></p>","null","","","","","","","","","","","","","","","","","","","","","","",""
"","do_trial","166","769681","0.0-93.0-0.0","""event"",""trial"",""time""
""fullscreenenter"",""0"",""3441""
","
","
","""event"",""trial"",""time""
""fullscreenenter"",""0"",""3441""
","
","434.8999999985099","","","","","","","","50","0,1,0","1","forest","37","probe-205","0.4948505632174728","0.23233531114709013","0.05392666474609923","1","","","","","","","",""
"","html-keyboard-response","167","770683","0.0-93.0-1.0","""event"",""trial"",""time""
""fullscreenenter"",""0"",""3441""
","
","
","""event"",""trial"",""time""
""fullscreenenter"",""0"",""3441""
","
","null","<p></p>","null","","","","","","","","","","","","","","","","","","","","","","",""
"","do_trial","168","776443","0.0-94.0-0.0","""event"",""trial"",""time""
""fullscreenenter"",""0"",""3441""
","
","
","""event"",""trial"",""time""
""fullscreenenter"",""0"",""3441""
","
","1198.199999999255","","","","","","","","50","1,0,0","1","forest","38","probe-24","0.5940203189180325","0.2696428705274381","0.09978763373661495","0","","","","","","","",""
"","html-keyboard-response","169","777445","0.0-94.0-1.0","""event"",""trial"",""time""
""fullscreenenter"",""0"",""3441""
","
","
","""event"",""trial"",""time""
""fullscreenenter"",""0"",""3441""
","
","null","<p></p>","null","","","","","","","","","","","","","","","","","","","","","","",""
"","do_trial","170","782886","0.0-95.0-0.0","""event"",""trial"",""time""
""fullscreenenter"",""0"",""3441""
","
","
","""event"",""trial"",""time""
""fullscreenenter"",""0"",""3441""
","
","881.3000000007451","","","","","","","","51","1,0,0","1","forest","39","probe-209","0.6192764339235819","0.27548523621994364","0.14323257615181711","0","","","","","","","",""
"","html-keyboard-response","171","783888","0.0-95.0-1.0","""event"",""trial"",""time""
""fullscreenenter"",""0"",""3441""
","
","
","""event"",""trial"",""time""
""fullscreenenter"",""0"",""3441""
","
","null","<p></p>","null","","","","","","","","","","","","","","","","","","","","","","",""
"","do_trial","172","788879","0.0-96.0-0.0","""event"",""trial"",""time""
""fullscreenenter"",""0"",""3441""
","
","
","""event"",""trial"",""time""
""fullscreenenter"",""0"",""3441""
","
","429.80000000074506","","","","","","","","49","1,1,1","1","forest","40","probe-72","0.7431870787020057","0.24445785705906975","0.337257106841061","1","","","","","","","",""
"","html-keyboard-response","173","789881","0.0-96.0-1.0","""event"",""trial"",""time""
""fullscreenenter"",""0"",""3441""
","
","
","""event"",""trial"",""time""
""fullscreenenter"",""0"",""3441""
","
","null","<p></p>","null","","","","","","","","","","","","","","","","","","","","","","",""
"","do_trial","174","795404","0.0-97.0-0.0","""event"",""trial"",""time""
""fullscreenenter"",""0"",""3441""
","
","
","""event"",""trial"",""time""
""fullscreenenter"",""0"",""3441""
","
","963","","","","","","","","49","1,0,0","1","forest","41","probe-47","0.7495579747888843","0.31849259259005874","0.33257717321927316","1","","","","","","","",""
"","html-keyboard-response","175","796406","0.0-97.0-1.0","""event"",""trial"",""time""
""fullscreenenter"",""0"",""3441""
","
","
","""event"",""trial"",""time""
""fullscreenenter"",""0"",""3441""
","
","null","<p></p>","null","","","","","","","","","","","","","","","","","","","","","","",""
"","do_trial","176","802183","0.0-98.0-0.0","""event"",""trial"",""time""
""fullscreenenter"",""0"",""3441""
","
","
","""event"",""trial"",""time""
""fullscreenenter"",""0"",""3441""
","
","1217.4000000003725","","","","","","","","49","0,1,0","1","forest","42","probe-210","0.6290820296695222","0.5718836725092433","0.23566608108492135","0","","","","","","","",""
"","html-keyboard-response","177","803185","0.0-98.0-1.0","""event"",""trial"",""time""
""fullscreenenter"",""0"",""3441""
","
","
","""event"",""trial"",""time""
""fullscreenenter"",""0"",""3441""
","
","null","<p></p>","null","","","","","","","","","","","","","","","","","","","","","","",""
"","do_trial","178","808737","0.0-99.0-0.0","""event"",""trial"",""time""
""fullscreenenter"",""0"",""3441""
","
","
","""event"",""trial"",""time""
""fullscreenenter"",""0"",""3441""
","
","992.5999999996275","","","","","","","","51","1,1,0","1","forest","43","probe-50","0.5731752804437189","0.6391293156897695","0.179570629874066","0","","","","","","","",""
"","html-keyboard-response","179","809740","0.0-99.0-1.0","""event"",""trial"",""time""
""fullscreenenter"",""0"",""3441""
","
","
","""event"",""trial"",""time""
""fullscreenenter"",""0"",""3441""
","
","null","<p></p>","null","","","","","","","","","","","","","","","","","","","","","","",""
"","do_trial","180","814768","0.0-100.0-0.0","""event"",""trial"",""time""
""fullscreenenter"",""0"",""3441""
","
","
","""event"",""trial"",""time""
""fullscreenenter"",""0"",""3441""
","
","467.5","","","","","","","","50","0,0,0","1","forest","44","probe-175","0.41082231935371694","0.6246461780913921","0.13052035695953296","0","","","","","","","",""
"","html-keyboard-response","181","815770","0.0-100.0-1.0","""event"",""trial"",""time""
""fullscreenenter"",""0"",""3441""
","
","
","""event"",""trial"",""time""
""fullscreenenter"",""0"",""3441""
","
","null","<p></p>","null","","","","","","","","","","","","","","","","","","","","","","",""
"","do_trial","182","820879","0.0-101.0-0.0","""event"",""trial"",""time""
""fullscreenenter"",""0"",""3441""
","
","
","""event"",""trial"",""time""
""fullscreenenter"",""0"",""3441""
","
","547.8000000007451","","","","","","","","49","1,1,0","1","forest","45","probe-83","0.4391678598131942","0.6248250644036272","0.20672377552648702","1","","","","","","","",""
"","html-keyboard-response","183","821881","0.0-101.0-1.0","""event"",""trial"",""time""
""fullscreenenter"",""0"",""3441""
","
","
","""event"",""trial"",""time""
""fullscreenenter"",""0"",""3441""
","
","null","<p></p>","null","","","","","","","","","","","","","","","","","","","","","","",""
"","do_trial","184","826806","0.0-102.0-0.0","""event"",""trial"",""time""
""fullscreenenter"",""0"",""3441""
","
","
","""event"",""trial"",""time""
""fullscreenenter"",""0"",""3441""
","
","365.19999999925494","","","","","","","","49","0,1,0","1","forest","46","probe-194","0.4207537069760559","0.5075213463003247","0.18709241546922717","0","","","","","","","",""
"","html-keyboard-response","185","827808","0.0-102.0-1.0","""event"",""trial"",""time""
""fullscreenenter"",""0"",""3441""
","
","
","""event"",""trial"",""time""
""fullscreenenter"",""0"",""3441""
","
","null","<p></p>","null","","","","","","","","","","","","","","","","","","","","","","",""
"","do_trial","186","833869","0.0-103.0-0.0","""event"",""trial"",""time""
""fullscreenenter"",""0"",""3441""
","
","
","""event"",""trial"",""time""
""fullscreenenter"",""0"",""3441""
","
","null","","","","","","","","null","0,0,0","1","forest","47","probe-207","0.4428626727507785","0.5603133055149002","0.10411256048703664","","","","","","","","",""
"","html-keyboard-response","187","834870","0.0-103.0-1.0","""event"",""trial"",""time""
""fullscreenenter"",""0"",""3441""
","
","
","""event"",""trial"",""time""
""fullscreenenter"",""0"",""3441""
","
","null","<p></p>","null","","","","","","","","","","","","","","","","","","","","","","",""
"","do_trial","188","839877","0.0-104.0-0.0","""event"",""trial"",""time""
""fullscreenenter"",""0"",""3441""
","
","
","""event"",""trial"",""time""
""fullscreenenter"",""0"",""3441""
","
","445.80000000074506","","","","","","","","49","0,1,0","1","forest","48","probe-220","0.2734272882245856","0.44490915707918227","0.15777244851211975","0","","","","","","","",""
"","html-keyboard-response","189","840879","0.0-104.0-1.0","""event"",""trial"",""time""
""fullscreenenter"",""0"",""3441""
","
","
","""event"",""trial"",""time""
""fullscreenenter"",""0"",""3441""
","
","null","<p></p>","null","","","","","","","","","","","","","","","","","","","","","","",""
"","do_trial","190","845866","0.0-105.0-0.0","""event"",""trial"",""time""
""fullscreenenter"",""0"",""3441""
","
","
","""event"",""trial"",""time""
""fullscreenenter"",""0"",""3441""
","
","425.19999999925494","","","","","","","","50","0,0,0","1","forest","49","probe-56","0.35716288591241","0.5030205338558047","0.07305196063912227","0","","","","","","","",""
"","html-keyboard-response","191","846867","0.0-105.0-1.0","""event"",""trial"",""time""
""fullscreenenter"",""0"",""3441""
","
","
","""event"",""trial"",""time""
""fullscreenenter"",""0"",""3441""
","
","null","<p></p>","null","","","","","","","","","","","","","","","","","","","","","","",""
"","do_trial","192","851946","0.0-106.0-0.0","""event"",""trial"",""time""
""fullscreenenter"",""0"",""3441""
","
","
","""event"",""trial"",""time""
""fullscreenenter"",""0"",""3441""
","
","517","","","","","","","","49","1,1,1","1","forest","50","probe-75","0.43640202407482437","0.5926164031741671","0.0964758621998645","1","","","","","","","",""
"","html-keyboard-response","193","852948","0.0-106.0-1.0","""event"",""trial"",""time""
""fullscreenenter"",""0"",""3441""
","
","
","""event"",""trial"",""time""
""fullscreenenter"",""0"",""3441""
","
","null","<p></p>","null","","","","","","","","","","","","","","","","","","","","","","",""
"","do_trial","194","858491","0.0-107.0-0.0","""event"",""trial"",""time""
""fullscreenenter"",""0"",""3441""
","
","
","""event"",""trial"",""time""
""fullscreenenter"",""0"",""3441""
","
","982.3000000007451","","","","","","","","49","0,1,0","1","forest","51","probe-65","0.3774131763877276","0.468381545862448","0.2364001867177575","0","","","","","","","",""
"","html-keyboard-response","195","859493","0.0-107.0-1.0","""event"",""trial"",""time""
""fullscreenenter"",""0"",""3441""
","
","
","""event"",""trial"",""time""
""fullscreenenter"",""0"",""3441""
","
","null","<p></p>","null","","","","","","","","","","","","","","","","","","","","","","",""
"","do_trial","196","865213","0.0-108.0-0.0","""event"",""trial"",""time""
""fullscreenenter"",""0"",""3441""
","
","
","""event"",""trial"",""time""
""fullscreenenter"",""0"",""3441""
","
","1160","","","","","","","","49","0,1,0","1","forest","52","probe-152","0.3050533189548428","0.31251642183452577","0.23015376184855332","0","","","","","","","",""
"","html-keyboard-response","197","866215","0.0-108.0-1.0","""event"",""trial"",""time""
""fullscreenenter"",""0"",""3441""
","
","
","""event"",""trial"",""time""
""fullscreenenter"",""0"",""3441""
","
","null","<p></p>","null","","","","","","","","","","","","","","","","","","","","","","",""
"","do_trial","198","871351","0.0-109.0-0.0","""event"",""trial"",""time""
""fullscreenenter"",""0"",""3441""
","
","
","""event"",""trial"",""time""
""fullscreenenter"",""0"",""3441""
","
","576.5","","","","","","","","51","0,1,0","1","forest","53","probe-91","0.3563356870818138","0.2543279640890724","0.32206222159831965","0","","","","","","","",""
"","html-keyboard-response","199","872353","0.0-109.0-1.0","""event"",""trial"",""time""
""fullscreenenter"",""0"",""3441""
","
","
","""event"",""trial"",""time""
""fullscreenenter"",""0"",""3441""
","
","null","<p></p>","null","","","","","","","","","","","","","","","","","","","","","","",""
"","do_trial","200","877412","0.0-110.0-0.0","""event"",""trial"",""time""
""fullscreenenter"",""0"",""3441""
","
","
","""event"",""trial"",""time""
""fullscreenenter"",""0"",""3441""
","
","497.7999999988824","","","","","","","","51","1,0,0","1","forest","54","probe-71","0.3337224112028789","0.5667591592620572","0.1765563301850431","0","","","","","","","",""
"","html-keyboard-response","201","878414","0.0-110.0-1.0","""event"",""trial"",""time""
""fullscreenenter"",""0"",""3441""
","
","
","""event"",""trial"",""time""
""fullscreenenter"",""0"",""3441""
","
","null","<p></p>","null","","","","","","","","","","","","","","","","","","","","","","",""
"","do_trial","202","883273","0.0-111.0-0.0","""event"",""trial"",""time""
""fullscreenenter"",""0"",""3441""
","
","
","""event"",""trial"",""time""
""fullscreenenter"",""0"",""3441""
","
","299.80000000074506","","","","","","","","50","0,1,0","1","forest","55","probe-79","0.21723028006778886","0.5730430745231984","0.10067523256035708","1","","","","","","","",""
"","html-keyboard-response","203","884275","0.0-111.0-1.0","""event"",""trial"",""time""
""fullscreenenter"",""0"",""3441""
","
","
","""event"",""trial"",""time""
""fullscreenenter"",""0"",""3441""
","
","null","<p></p>","null","","","","","","","","","","","","","","","","","","","","","","",""
"","do_trial","204","891654","0.0-112.0-0.0","""event"",""trial"",""time""
""fullscreenenter"",""0"",""3441""
","
","
","""event"",""trial"",""time""
""fullscreenenter"",""0"",""3441""
","
","2815.699999999255","","","","","","","","49","0,0,0","1","forest","56","probe-04","0.12956562950056363","0.5914489789312354","0.09497145497474369","0","","","","","","","",""
"","html-keyboard-response","205","892657","0.0-112.0-1.0","""event"",""trial"",""time""
""fullscreenenter"",""0"",""3441""
","
","
","""event"",""trial"",""time""
""fullscreenenter"",""0"",""3441""
","
","null","<p></p>","null","","","","","","","","","","","","","","","","","","","","","","",""
"","do_trial","206","897764","0.0-113.0-0.0","""event"",""trial"",""time""
""fullscreenenter"",""0"",""3441""
","
","
","""event"",""trial"",""time""
""fullscreenenter"",""0"",""3441""
","
","549.4000000003725","","","","","","","","51","0,1,0","1","forest","57","probe-31","0.14425474361679919","0.494656401509127","0.05804777782265542","0","","","","","","","",""
"","html-keyboard-response","207","898766","0.0-113.0-1.0","""event"",""trial"",""time""
""fullscreenenter"",""0"",""3441""
","
","
","""event"",""trial"",""time""
""fullscreenenter"",""0"",""3441""
","
","null","<p></p>","null","","","","","","","","","","","","","","","","","","","","","","",""
"","do_trial","208","904134","0.0-114.0-0.0","""event"",""trial"",""time""
""fullscreenenter"",""0"",""3441""
","
","
","""event"",""trial"",""time""
""fullscreenenter"",""0"",""3441""
","
","807.8000000007451","","","","","","","","49","0,0,0","1","forest","58","probe-138","0.18614992235571834","0.5028675793510525","0.07190885769468056","0","","","","","","","",""
"","html-keyboard-response","209","905136","0.0-114.0-1.0","""event"",""trial"",""time""
""fullscreenenter"",""0"",""3441""
","
","
","""event"",""trial"",""time""
""fullscreenenter"",""0"",""3441""
","
","null","<p></p>","null","","","","","","","","","","","","","","","","","","","","","","",""
"","do_trial","210","910236","0.0-115.0-0.0","""event"",""trial"",""time""
""fullscreenenter"",""0"",""3441""
","
","
","""event"",""trial"",""time""
""fullscreenenter"",""0"",""3441""
","
","541","","","","","","","","51","0,0,1","1","forest","59","probe-23","0.17490426830939299","0.6594840160614663","0.09787660378437688","1","","","","","","","",""
"","html-keyboard-response","211","911238","0.0-115.0-1.0","""event"",""trial"",""time""
""fullscreenenter"",""0"",""3441""
","
","
","""event"",""trial"",""time""
""fullscreenenter"",""0"",""3441""
","
","null","<p></p>","null","","","","","","","","","","","","","","","","","","","","","","",""
"","do_trial","212","916466","0.0-116.0-0.0","""event"",""trial"",""time""
""fullscreenenter"",""0"",""3441""
","
","
","""event"",""trial"",""time""
""fullscreenenter"",""0"",""3441""
","
","666.9000000003725","","","","","","","","51","0,1,1","1","forest","60","probe-37","0.18766857180209717","0.6354366097292641","0.17150859472912727","1","","","","","","","",""
"","html-keyboard-response","213","917468","0.0-116.0-1.0","""event"",""trial"",""time""
""fullscreenenter"",""0"",""3441""
","
","
","""event"",""trial"",""time""
""fullscreenenter"",""0"",""3441""
","
","null","<p></p>","null","","","","","","","","","","","","","","","","","","","","","","",""
"","do_trial","214","923226","0.0-117.0-0.0","""event"",""trial"",""time""
""fullscreenenter"",""0"",""3441""
","
","
","""event"",""trial"",""time""
""fullscreenenter"",""0"",""3441""
","
","1195.199999999255","","","","","","","","51","0,0,1","1","forest","61","probe-119","0.2451807120345525","0.6284270210311069","0.29334579840000663","1","","","","","","","",""
"","html-keyboard-response","215","924228","0.0-117.0-1.0","""event"",""trial"",""time""
""fullscreenenter"",""0"",""3441""
","
","
","""event"",""trial"",""time""
""fullscreenenter"",""0"",""3441""
","
","null","<p></p>","null","","","","","","","","","","","","","","","","","","","","","","",""
"","do_trial","216","929490","0.0-118.0-0.0","""event"",""trial"",""time""
""fullscreenenter"",""0"",""3441""
","
","
","""event"",""trial"",""time""
""fullscreenenter"",""0"",""3441""
","
","700.1999999992549","","","","","","","","51","0,1,0","1","forest","62","probe-57","0.35422443655125163","0.43368541112889925","0.061965792102235684","0","","","","","","","",""
"","html-keyboard-response","217","930492","0.0-118.0-1.0","""event"",""trial"",""time""
""fullscreenenter"",""0"",""3441""
","
","
","""event"",""trial"",""time""
""fullscreenenter"",""0"",""3441""
","
","null","<p></p>","null","","","","","","","","","","","","","","","","","","","","","","",""
"","do_trial","218","935724","0.0-119.0-0.0","""event"",""trial"",""time""
""fullscreenenter"",""0"",""3441""
","
","
","""event"",""trial"",""time""
""fullscreenenter"",""0"",""3441""
","
","670.7999999988824","","","","","","","","51","0,0,0","1","forest","63","probe-19","0.3398083376545306","0.44051624539684386","0.07409642775856931","0","","","","","","","",""
"","html-keyboard-response","219","936726","0.0-119.0-1.0","""event"",""trial"",""time""
""fullscreenenter"",""0"",""3441""
","
","
","""event"",""trial"",""time""
""fullscreenenter"",""0"",""3441""
","
","null","<p></p>","null","","","","","","","","","","","","","","","","","","","","","","",""
"","do_trial","220","942176","0.0-120.0-0.0","""event"",""trial"",""time""
""fullscreenenter"",""0"",""3441""
","
","
","""event"",""trial"",""time""
""fullscreenenter"",""0"",""3441""
","
","888","","","","","","","","51","1,1,0","1","forest","64","probe-180","0.48753254512905436","0.5484817239357852","0.05470726354853904","0","","","","","","","",""
"","html-keyboard-response","221","943178","0.0-120.0-1.0","""event"",""trial"",""time""
""fullscreenenter"",""0"",""3441""
","
","
","""event"",""trial"",""time""
""fullscreenenter"",""0"",""3441""
","
","null","<p></p>","null","","","","","","","","","","","","","","","","","","","","","","",""
"","do_trial","222","947740","0.0-121.0-0.0","""event"",""trial"",""time""
""fullscreenenter"",""0"",""3441""
","
","
","""event"",""trial"",""time""
""fullscreenenter"",""0"",""3441""
","
","0.40000000037252903","","","","","","","","51","1,1,0","1","forest","65","probe-200","0.4283534638795649","0.5092796634918034","0.15655964807628103","0","","","","","","","",""
"","html-keyboard-response","223","948742","0.0-121.0-1.0","""event"",""trial"",""time""
""fullscreenenter"",""0"",""3441""
","
","
","""event"",""trial"",""time""
""fullscreenenter"",""0"",""3441""
","
","null","<p></p>","null","","","","","","","","","","","","","","","","","","","","","","",""
"","do_trial","224","953715","0.0-122.0-0.0","""event"",""trial"",""time""
""fullscreenenter"",""0"",""3441""
","
","
","""event"",""trial"",""time""
""fullscreenenter"",""0"",""3441""
","
","413.59999999962747","","","","","","","","51","0,0,0","1","forest","66","probe-84","0.19079426297535307","0.5009464130974463","0.18711069656365095","0","","","","","","","",""
"","html-keyboard-response","225","954717","0.0-122.0-1.0","""event"",""trial"",""time""
""fullscreenenter"",""0"",""3441""
","
","
","""event"",""trial"",""time""
""fullscreenenter"",""0"",""3441""
","
","null","<p></p>","null","","","","","","","","","","","","","","","","","","","","","","",""
"","do_trial","226","959784","0.0-123.0-0.0","""event"",""trial"",""time""
""fullscreenenter"",""0"",""3441""
","
","
","""event"",""trial"",""time""
""fullscreenenter"",""0"",""3441""
","
","508.40000000037253","","","","","","","","49","0,0,0","1","forest","67","probe-112","0.2640720999962423","0.6420546118678527","0.204478625105875","0","","","","","","","",""
"","html-keyboard-response","227","960787","0.0-123.0-1.0","""event"",""trial"",""time""
""fullscreenenter"",""0"",""3441""
","
","
","""event"",""trial"",""time""
""fullscreenenter"",""0"",""3441""
","
","null","<p></p>","null","","","","","","","","","","","","","","","","","","","","","","",""
"","do_trial","228","965583","0.0-124.0-0.0","""event"",""trial"",""time""
""fullscreenenter"",""0"",""3441""
","
","
","""event"",""trial"",""time""
""fullscreenenter"",""0"",""3441""
","
","236.09999999962747","","","","","","","","49","0,1,0","1","forest","68","probe-96","0.295903436661743","0.6666400282859154","0.10769381794556568","0","","","","","","","",""
"","html-keyboard-response","229","966585","0.0-124.0-1.0","""event"",""trial"",""time""
""fullscreenenter"",""0"",""3441""
","
","
","""event"",""trial"",""time""
""fullscreenenter"",""0"",""3441""
","
","null","<p></p>","null","","","","","","","","","","","","","","","","","","","","","","",""
"","do_trial","230","971490","0.0-125.0-0.0","""event"",""trial"",""time""
""fullscreenenter"",""0"",""3441""
","
","
","""event"",""trial"",""time""
""fullscreenenter"",""0"",""3441""
","
","345.5","","","","","","","","50","0,1,0","1","forest","69","probe-164","0.31089623326059396","0.6911490242373839","0.050115216218009816","1","","","","","","","",""
"","html-keyboard-response","231","972492","0.0-125.0-1.0","""event"",""trial"",""time""
""fullscreenenter"",""0"",""3441""
","
","
","""event"",""trial"",""time""
""fullscreenenter"",""0"",""3441""
","
","null","<p></p>","null","","","","","","","","","","","","","","","","","","","","","","",""
"","do_bye","232","973997","0.0-126.0-0.0","""event"",""trial"",""time""
""fullscreenenter"",""0"",""3441""
","
","
","""event"",""trial"",""time""
""fullscreenenter"",""0"",""3441""
","
","null","","","","","","","","null","","","","","","","","","","","","","","","","",""
"","break","233","976298","0.0-126.0-1.0","""event"",""trial"",""time""
""fullscreenenter"",""0"",""3441""
","
","
","""event"",""trial"",""time""
""fullscreenenter"",""0"",""3441""
","
","2298.5999999996275","<div class='center'><p>Time to take a quick break! You have 2 minutes to rest, but you can move on sooner if you'd like.</p><p> Press the <b>space bar</b> to continue.</p></div>","32","","","","","","","","","","","","","","","","","","","","","","",""
"","do_travel","234","985301","0.0-127.0-0.0","""event"",""trial"",""time""
""fullscreenenter"",""0"",""3441""
","
","
","""event"",""trial"",""time""
""fullscreenenter"",""0"",""3441""
","
","null","","","","","","","","null","","","","","","","","","","","","","","","","",""
"","do_welcome","235","989308","0.0-127.0-1.0","""event"",""trial"",""time""
""fullscreenenter"",""0"",""3441""
","
","
","""event"",""trial"",""time""
""fullscreenenter"",""0"",""3441""
","
","null","","","","","","","","null","","","","","","","","","","","","","","","","",""
"","do_trial","236","995369","0.0-128.0-0.0","""event"",""trial"",""time""
""fullscreenenter"",""0"",""3441""
","
","
","""event"",""trial"",""time""
""fullscreenenter"",""0"",""3441""
","
","null","","","","","","","","null","0,1,0","2","coast","70","probe-196","0.24197570770658366","1","0.14085555877812544","","","","","","","","",""
"","html-keyboard-response","237","996371","0.0-128.0-1.0","""event"",""trial"",""time""
""fullscreenenter"",""0"",""3441""
","
","
","""event"",""trial"",""time""
""fullscreenenter"",""0"",""3441""
","
","null","<p></p>","null","","","","","","","","","","","","","","","","","","","","","","",""
"","do_trial","238","1001502","0.0-129.0-0.0","""event"",""trial"",""time""
""fullscreenenter"",""0"",""3441""
","
","
","""event"",""trial"",""time""
""fullscreenenter"",""0"",""3441""
","
","568.3000000007451","","","","","","","","50","0,1,0","2","coast","71","probe-38","0.2740198111952072","1","0.09407879065307688","1","","","","","","","",""
"","html-keyboard-response","239","1002504","0.0-129.0-1.0","""event"",""trial"",""time""
""fullscreenenter"",""0"",""3441""
","
","
","""event"",""trial"",""time""
""fullscreenenter"",""0"",""3441""
","
","null","<p></p>","null","","","","","","","","","","","","","","","","","","","","","","",""
"","do_trial","240","1007395","0.0-130.0-0.0","""event"",""trial"",""time""
""fullscreenenter"",""0"",""3441""
","
","
","""event"",""trial"",""time""
""fullscreenenter"",""0"",""3441""
","
","331.5","","","","","","","","50","1,1,0","2","coast","72","probe-158","0.32979299042510557","0.937427493602401","0.14720153135935082","1","","","","","","","",""
"","html-keyboard-response","241","1008398","0.0-130.0-1.0","""event"",""trial"",""time""
""fullscreenenter"",""0"",""3441""
","
","
","""event"",""trial"",""time""
""fullscreenenter"",""0"",""3441""
","
","null","<p></p>","null","","","","","","","","","","","","","","","","","","","","","","",""
"","do_trial","242","1013275","0.0-131.0-0.0","""event"",""trial"",""time""
""fullscreenenter"",""0"",""3441""
","
","
","""event"",""trial"",""time""
""fullscreenenter"",""0"",""3441""
","
","316","","","","","","","","50","0,1,0","2","coast","73","probe-219","0.36628675830483076","0.8905271444693194","0.1745140743711925","1","","","","","","","",""
"","html-keyboard-response","243","1014277","0.0-131.0-1.0","""event"",""trial"",""time""
""fullscreenenter"",""0"",""3441""
","
","
","""event"",""trial"",""time""
""fullscreenenter"",""0"",""3441""
","
","null","<p></p>","null","","","","","","","","","","","","","","","","","","","","","","",""
"","do_trial","244","1019302","0.0-132.0-0.0","""event"",""trial"",""time""
""fullscreenenter"",""0"",""3441""
","
","
","""event"",""trial"",""time""
""fullscreenenter"",""0"",""3441""
","
","464.90000000037253","","","","","","","","50","1,1,0","2","coast","74","probe-132","0.40765524648991536","0.7092897652900471","0.14061386536877718","1","","","","","","","",""
"","html-keyboard-response","245","1020304","0.0-132.0-1.0","""event"",""trial"",""time""
""fullscreenenter"",""0"",""3441""
","
","
","""event"",""trial"",""time""
""fullscreenenter"",""0"",""3441""
","
","null","<p></p>","null","","","","","","","","","","","","","","","","","","","","","","",""
"","do_trial","246","1026164","0.0-133.0-0.0","""event"",""trial"",""time""
""fullscreenenter"",""0"",""3441""
","
","
","""event"",""trial"",""time""
""fullscreenenter"",""0"",""3441""
","
","1298.9000000003725","","","","","","","","50","1,1,0","2","coast","75","probe-103","0.3350182312909253","0.7029482533023317","0.18920696783083762","1","","","","","","","",""
"","html-keyboard-response","247","1027166","0.0-133.0-1.0","""event"",""trial"",""time""
""fullscreenenter"",""0"",""3441""
","
","
","""event"",""trial"",""time""
""fullscreenenter"",""0"",""3441""
","
","null","<p></p>","null","","","","","","","","","","","","","","","","","","","","","","",""
"","do_trial","248","1032218","0.0-134.0-0.0","""event"",""trial"",""time""
""fullscreenenter"",""0"",""3441""
","
","
","""event"",""trial"",""time""
""fullscreenenter"",""0"",""3441""
","
","491.2999999988824","","","","","","","","50","1,1,0","2","coast","76","probe-97","0.4656079450577362","0.5831974530732872","0.15564535208814523","1","","","","","","","",""
"","html-keyboard-response","249","1033220","0.0-134.0-1.0","""event"",""trial"",""time""
""fullscreenenter"",""0"",""3441""
","
","
","""event"",""trial"",""time""
""fullscreenenter"",""0"",""3441""
","
","null","<p></p>","null","","","","","","","","","","","","","","","","","","","","","","",""
"","do_trial","250","1037781","0.0-135.0-0.0","""event"",""trial"",""time""
""fullscreenenter"",""0"",""3441""
","
","
","""event"",""trial"",""time""
""fullscreenenter"",""0"",""3441""
","
","0.5","","","","","","","","50","1,1,0","2","coast","77","probe-29","0.29811084874232324","0.5905771538450894","0.061479197037978876","1","","","","","","","",""
"","html-keyboard-response","251","1038783","0.0-135.0-1.0","""event"",""trial"",""time""
""fullscreenenter"",""0"",""3441""
","
","
","""event"",""trial"",""time""
""fullscreenenter"",""0"",""3441""
","
","null","<p></p>","null","","","","","","","","","","","","","","","","","","","","","","",""
"","do_trial","252","1044588","0.0-136.0-0.0","""event"",""trial"",""time""
""fullscreenenter"",""0"",""3441""
","
","
","""event"",""trial"",""time""
""fullscreenenter"",""0"",""3441""
","
","1244.3999999985099","","","","","","","","50","0,1,0","2","coast","78","probe-17","0.25106246411169186","0.5712852815311668","0.06948103927108953","1","","","","","","","",""
"","html-keyboard-response","253","1045590","0.0-136.0-1.0","""event"",""trial"",""time""
""fullscreenenter"",""0"",""3441""
","
","
","""event"",""trial"",""time""
""fullscreenenter"",""0"",""3441""
","
","null","<p></p>","null","","","","","","","","","","","","","","","","","","","","","","",""
"","do_trial","254","1050442","0.0-137.0-0.0","""event"",""trial"",""time""
""fullscreenenter"",""0"",""3441""
","
","
","""event"",""trial"",""time""
""fullscreenenter"",""0"",""3441""
","
","291.8999999985099","","","","","","","","50","0,1,0","2","coast","79","probe-68","0.2527793744782584","0.5859235048160737","0.11739429867441491","1","","","","","","","",""
"","html-keyboard-response","255","1051445","0.0-137.0-1.0","""event"",""trial"",""time""
""fullscreenenter"",""0"",""3441""
","
","
","""event"",""trial"",""time""
""fullscreenenter"",""0"",""3441""
","
","null","<p></p>","null","","","","","","","","","","","","","","","","","","","","","","",""
"","do_trial","256","1056335","0.0-138.0-0.0","""event"",""trial"",""time""
""fullscreenenter"",""0"",""3441""
","
","
","""event"",""trial"",""time""
""fullscreenenter"",""0"",""3441""
","
","331.09999999962747","","","","","","","","50","1,0,0","2","coast","80","probe-184","0.38401567539677073","0.5579939841112959","0.15753031278060317","0","","","","","","","",""
"","html-keyboard-response","257","1057337","0.0-138.0-1.0","""event"",""trial"",""time""
""fullscreenenter"",""0"",""3441""
","
","
","""event"",""trial"",""time""
""fullscreenenter"",""0"",""3441""
","
","null","<p></p>","null","","","","","","","","","","","","","","","","","","","","","","",""
"","do_trial","258","1062966","0.0-139.0-0.0","""event"",""trial"",""time""
""fullscreenenter"",""0"",""3441""
","
","
","""event"",""trial"",""time""
""fullscreenenter"",""0"",""3441""
","
","1067.7999999988824","","","","","","","","49","0,0,0","2","coast","81","probe-218","0.3466986279295958","0.5776093010094527","0.15374298260811858","0","","","","","","","",""
"","html-keyboard-response","259","1063968","0.0-139.0-1.0","""event"",""trial"",""time""
""fullscreenenter"",""0"",""3441""
","
","
","""event"",""trial"",""time""
""fullscreenenter"",""0"",""3441""
","
","null","<p></p>","null","","","","","","","","","","","","","","","","","","","","","","",""
"","do_trial","260","1068821","0.0-140.0-0.0","""event"",""trial"",""time""
""fullscreenenter"",""0"",""3441""
","
","
","""event"",""trial"",""time""
""fullscreenenter"",""0"",""3441""
","
","291.40000000037253","","","","","","","","50","0,1,0","2","coast","82","probe-117","0.33323581842219085","0.6657818431832376","0.4226776735889702","1","","","","","","","",""
"","html-keyboard-response","261","1069823","0.0-140.0-1.0","""event"",""trial"",""time""
""fullscreenenter"",""0"",""3441""
","
","
","""event"",""trial"",""time""
