"success","trial_type","trial_index","time_elapsed","internal_node_id","interactions","blur_events","focus_events","fullscreenenter_events","fullscreenexit_events","rt","stimulus","key_press","subject_id","participant_id","age","gender","prompt","response","choice_outcomes","context_n","context_img_id","trial_n","probe_img_id","pR_red","pR_white","pR_black","outcome","contextArray_ind","validImageProbes","invalidImageProbes","pRew_Red","pRew_White","pRew_Black","availableForMemProbe","choice_blocks"
"true","fullscreen","0","5973","0.0-0.0","""event"",""trial"",""time""
""fullscreenenter"",""0"",""4996""
","
","
","""event"",""trial"",""time""
""fullscreenenter"",""0"",""4996""
","
","","","","","","","","","","","","","","","","","","","","","","","","","",""
"","pavlovia","1","5978","0.0-1.0","""event"",""trial"",""time""
""fullscreenenter"",""0"",""4996""
","
","
","""event"",""trial"",""time""
""fullscreenenter"",""0"",""4996""
","
","","","","","","","","","","","","","","","","","","","","","","","","","",""
"","instruc1","2","51127","0.0-2.0","""event"",""trial"",""time""
""fullscreenenter"",""0"",""4996""
","
","
","""event"",""trial"",""time""
""fullscreenenter"",""0"",""4996""
","
","null","run_exp/static/audio/clip_1_welcome.m4a","null","235","759","10","Female","<div class='center'><p>Welcome! This is the first part of the study. It will last ~30 minutes. In part 1 and part 2 of the study, you are the head captain of a pirate ship traveling around the world to different islands. You will play a few different games throughout these two parts. Here is an overview of them:</p><br><p>Part 1 (today)</p><p>1. Instructions, practice game, and quiz</p><p>2. Pick a pirate game on 6 different islands</p><br><p>Part 2 (tomorrow)</p><p>3. Pick a pirate game and memory game</p><p>4. Where did you see this ship? </p></div>","","","","","","","","","","","","","","","","","",""
"","html-keyboard-response","3","52173","0.0-3.0","""event"",""trial"",""time""
""fullscreenenter"",""0"",""4996""
","
","
","""event"",""trial"",""time""
""fullscreenenter"",""0"",""4996""
","
","1044.3999999985099","<div class='center'><p>Welcome! This is the first part of the study. It will last ~30 minutes. In part 1 and part 2 of the study, you are the head captain of a pirate ship traveling around the world to different islands. You will play a few different games throughout these two parts. Here is an overview of them:</p><br><p>Part 1 (today)</p><p>1. Instructions, practice game, and quiz</p><p>2. Pick a pirate game on 6 different islands</p><br><p>Part 2 (tomorrow)</p><p>3. Pick a pirate game and memory game</p><p>4. Where did you see this ship? </p><p><b>[Press the space bar to continue]</b></p></div>","32","","","","","","","","","","","","","","","","","","","","","","",""
"","instruc2","4","57722","0.0-4.0","""event"",""trial"",""time""
""fullscreenenter"",""0"",""4996""
","
","
","""event"",""trial"",""time""
""fullscreenenter"",""0"",""4996""
","
","null","run_exp/static/audio/clip_2_different_places.m4a","null","","","","","<div class='center'><p>Today, you’ll visit these 6 islands on your journey. You'll be able to see these islands from your ship.</p><p><img src='run_exp/static/images/contexts/all_contexts.png' height='500'></p></div>","","","","","","","","","","","","","","","","","",""
"","html-keyboard-response","5","59311","0.0-5.0","""event"",""trial"",""time""
""fullscreenenter"",""0"",""4996""
","
","
","""event"",""trial"",""time""
""fullscreenenter"",""0"",""4996""
","
","1587.3999999985099","<div class='center'><p>Today, you’ll visit these 6 islands on your journey. You'll be able to see these islands from your ship.</p><p><img src='run_exp/static/images/contexts/all_contexts.png' height='500'></p><p><b>[Press the space bar to continue]</b></p></div>","32","","","","","","","","","","","","","","","","","","","","","","",""
"","instruc3","6","69238","0.0-6.0","""event"",""trial"",""time""
""fullscreenenter"",""0"",""4996""
","
","
","""event"",""trial"",""time""
""fullscreenenter"",""0"",""4996""
","
","null","run_exp/static/audio/clip_3_goal_of_game_1.m4a","null","","","","","<div class='center'><p> The pirates on your ship will rob other ships as they leave the island.</p> These ships have just sold their goods to the islanders, so they will be filled with lots and lots of gold.</p><p><img src='run_exp/static/images/tutorial/ship_center.png' height='400'></p></div>","","","","","","","","","","","","","","","","","",""
"","html-keyboard-response","7","69799","0.0-7.0","""event"",""trial"",""time""
""fullscreenenter"",""0"",""4996""
","
","
","""event"",""trial"",""time""
""fullscreenenter"",""0"",""4996""
","
","557.8000000007451","<div class='center'><p> The pirates on your ship will rob other ships as they leave the island.</p> These ships have just sold their goods to the islanders, so they will be filled with lots and lots of gold.</p><p><img src='run_exp/static/images/tutorial/ship_center.png' height='400'></p><p><b>[Press the space bar to continue]</b></p></div>","32","","","","","","","","","","","","","","","","","","","","","","",""
"","instruc4","8","98030","0.0-8.0","""event"",""trial"",""time""
""fullscreenenter"",""0"",""4996""
","
","
","""event"",""trial"",""time""
""fullscreenenter"",""0"",""4996""
","
","null","run_exp/static/audio/clip_4_goal_of_game_2.m4a","null","","","","","<div class='center'><p>As the head captain, you do not have to rob any ships yourself. Another pirate will be doing the robbing for you. First, you will choose a pirate to rob the next ship.</p><p><img src='run_exp/static/images/tutorial/pirates_all_crop.png' height='200'></p><p>Then, you'll see if the pirate successfully robbed the ship of their gold. If they were successful, then you'll get a stack of gold coins like this:</p><p><img src='run_exp/static/images/tutorial/reward.png' height='150'></p><p> If they were <b>not</b> successful, then you'll get no gold coins, and you'll see a big red x like this: </p><p><img src='run_exp/static/images/tutorial/reward_no.png' height='150'></p><p> How much bonus money you make is based on how many gold coins you collect.</p><div>","","","","","","","","","","","","","","","","","",""
"","html-keyboard-response","9","99355","0.0-9.0","""event"",""trial"",""time""
""fullscreenenter"",""0"",""4996""
","
","
","""event"",""trial"",""time""
""fullscreenenter"",""0"",""4996""
","
","1322.0999999996275","<div class='center'><p>As the head captain, you do not have to rob any ships yourself. Another pirate will be doing the robbing for you. First, you will choose a pirate to rob the next ship.</p><p><img src='run_exp/static/images/tutorial/pirates_all_crop.png' height='200'></p><p>Then, you'll see if the pirate successfully robbed the ship of their gold. If they were successful, then you'll get a stack of gold coins like this:</p><p><img src='run_exp/static/images/tutorial/reward.png' height='150'></p><p> If they were <b>not</b> successful, then you'll get no gold coins, and you'll see a big red x like this: </p><p><img src='run_exp/static/images/tutorial/reward_no.png' height='150'></p><p> How much bonus money you make is based on how many gold coins you collect.</p<p><b>[Press the space bar to continue]</b></p></div>","32","","","","","","","","","","","","","","","","","","","","","","",""
"","instruc5","10","123086","0.0-10.0","""event"",""trial"",""time""
""fullscreenenter"",""0"",""4996""
","
","
","""event"",""trial"",""time""
""fullscreenenter"",""0"",""4996""
","
","23728.699999999255","run_exp/static/audio/clip_5_probabilistic.m4a","49","","","","","<div class='center'><p>Even the most skilled pirate can not rob EVERY ship.</p><p> Some ships will have very strong protections against pirate attacks.</p><p> Blue beard, here, is very, very good at robbing ships, but he won't be successful every time he tries to rob one.</p><p> You can press the <b>‘1’</b> key on the keyboard to choose him.</p><p> Try choosing him 10 times to see how often he succeeds at robbing a ship. </p><p><img src='run_exp/static/images/tutorial/blue.png' height='500'></p></div>","","","","","","","","","","","","","","","","","",""
"","html-keyboard-response","11","124588","0.0-11.0","""event"",""trial"",""time""
""fullscreenenter"",""0"",""4996""
","
","
","""event"",""trial"",""time""
""fullscreenenter"",""0"",""4996""
","
","null","<div class='center'><p><img src='run_exp/static/images/tutorial/blue_win.png' height='500'></p></div>","null","","","","","","","","","","","","","","","","","","","","","","",""
"","html-keyboard-response","12","125483","0.0-12.0","""event"",""trial"",""time""
""fullscreenenter"",""0"",""4996""
","
","
","""event"",""trial"",""time""
""fullscreenenter"",""0"",""4996""
","
","893.7000000011176","<div class='center'><img src='run_exp/static/images/tutorial/blue.png' height='500'></p></div>","49","","","","","","","","","","","","","","","","","","","","","","",""
"","html-keyboard-response","13","126984","0.0-13.0","""event"",""trial"",""time""
""fullscreenenter"",""0"",""4996""
","
","
","""event"",""trial"",""time""
""fullscreenenter"",""0"",""4996""
","
","null","<div class='center'><p><img src='run_exp/static/images/tutorial/blue_win.png' height='500'></p></div>","null","","","","","","","","","","","","","","","","","","","","","","",""
"","html-keyboard-response","14","127344","0.0-14.0","""event"",""trial"",""time""
""fullscreenenter"",""0"",""4996""
","
","
","""event"",""trial"",""time""
""fullscreenenter"",""0"",""4996""
","
","358","<div class='center'><img src='run_exp/static/images/tutorial/blue.png' height='500'></p></div>","49","","","","","","","","","","","","","","","","","","","","","","",""
"","html-keyboard-response","15","128845","0.0-15.0","""event"",""trial"",""time""
""fullscreenenter"",""0"",""4996""
","
","
","""event"",""trial"",""time""
""fullscreenenter"",""0"",""4996""
","
","null","<div class='center'><p><img src='run_exp/static/images/tutorial/blue_win.png' height='500'></p></div>","null","","","","","","","","","","","","","","","","","","","","","","",""
"","html-keyboard-response","16","129298","0.0-16.0","""event"",""trial"",""time""
""fullscreenenter"",""0"",""4996""
","
","
","""event"",""trial"",""time""
""fullscreenenter"",""0"",""4996""
","
","451.80000000074506","<div class='center'><img src='run_exp/static/images/tutorial/blue.png' height='500'></p></div>","49","","","","","","","","","","","","","","","","","","","","","","",""
"","html-keyboard-response","17","130800","0.0-17.0","""event"",""trial"",""time""
""fullscreenenter"",""0"",""4996""
","
","
","""event"",""trial"",""time""
""fullscreenenter"",""0"",""4996""
","
","null","<div class='center'><p><img src='run_exp/static/images/tutorial/blue_no_win.png' height='500'></p></div>","null","","","","","","","","","","","","","","","","","","","","","","",""
"","html-keyboard-response","18","131738","0.0-18.0","""event"",""trial"",""time""
""fullscreenenter"",""0"",""4996""
","
","
","""event"",""trial"",""time""
""fullscreenenter"",""0"",""4996""
","
","937","<div class='center'><img src='run_exp/static/images/tutorial/blue.png' height='500'></p></div>","49","","","","","","","","","","","","","","","","","","","","","","",""
"","html-keyboard-response","19","133240","0.0-19.0","""event"",""trial"",""time""
""fullscreenenter"",""0"",""4996""
","
","
","""event"",""trial"",""time""
""fullscreenenter"",""0"",""4996""
","
","null","<div class='center'><p><img src='run_exp/static/images/tutorial/blue_win.png' height='500'></p></div>","null","","","","","","","","","","","","","","","","","","","","","","",""
"","html-keyboard-response","20","134120","0.0-20.0","""event"",""trial"",""time""
""fullscreenenter"",""0"",""4996""
","
","
","""event"",""trial"",""time""
""fullscreenenter"",""0"",""4996""
","
","879.4000000003725","<div class='center'><img src='run_exp/static/images/tutorial/blue.png' height='500'></p></div>","49","","","","","","","","","","","","","","","","","","","","","","",""
"","html-keyboard-response","21","135621","0.0-21.0","""event"",""trial"",""time""
""fullscreenenter"",""0"",""4996""
","
","
","""event"",""trial"",""time""
""fullscreenenter"",""0"",""4996""
","
","null","<div class='center'><p><img src='run_exp/static/images/tutorial/blue_win.png' height='500'></p></div>","null","","","","","","","","","","","","","","","","","","","","","","",""
"","html-keyboard-response","22","136933","0.0-22.0","""event"",""trial"",""time""
""fullscreenenter"",""0"",""4996""
","
","
","""event"",""trial"",""time""
""fullscreenenter"",""0"",""4996""
","
","1310.5","<div class='center'><img src='run_exp/static/images/tutorial/blue.png' height='500'></p></div>","49","","","","","","","","","","","","","","","","","","","","","","",""
"","html-keyboard-response","23","138435","0.0-23.0","""event"",""trial"",""time""
""fullscreenenter"",""0"",""4996""
","
","
","""event"",""trial"",""time""
""fullscreenenter"",""0"",""4996""
","
","null","<div class='center'><p><img src='run_exp/static/images/tutorial/blue_win.png' height='500'></p></div>","null","","","","","","","","","","","","","","","","","","","","","","",""
"","html-keyboard-response","24","139974","0.0-24.0","""event"",""trial"",""time""
""fullscreenenter"",""0"",""4996""
","
","
","""event"",""trial"",""time""
""fullscreenenter"",""0"",""4996""
","
","1537.199999999255","<div class='center'><img src='run_exp/static/images/tutorial/blue.png' height='500'></p></div>","49","","","","","","","","","","","","","","","","","","","","","","",""
"","html-keyboard-response","25","141475","0.0-25.0","""event"",""trial"",""time""
""fullscreenenter"",""0"",""4996""
","
","
","""event"",""trial"",""time""
""fullscreenenter"",""0"",""4996""
","
","null","<div class='center'><p><img src='run_exp/static/images/tutorial/blue_no_win.png' height='500'></p></div>","null","","","","","","","","","","","","","","","","","","","","","","",""
"","html-keyboard-response","26","142236","0.0-26.0","""event"",""trial"",""time""
""fullscreenenter"",""0"",""4996""
","
","
","""event"",""trial"",""time""
""fullscreenenter"",""0"",""4996""
","
","760.3000000007451","<div class='center'><img src='run_exp/static/images/tutorial/blue.png' height='500'></p></div>","49","","","","","","","","","","","","","","","","","","","","","","",""
"","html-keyboard-response","27","143738","0.0-27.0","""event"",""trial"",""time""
""fullscreenenter"",""0"",""4996""
","
","
","""event"",""trial"",""time""
""fullscreenenter"",""0"",""4996""
","
","null","<div class='center'><p><img src='run_exp/static/images/tutorial/blue_win.png' height='500'></p></div>","null","","","","","","","","","","","","","","","","","","","","","","",""
"","html-keyboard-response","28","144434","0.0-28.0","""event"",""trial"",""time""
""fullscreenenter"",""0"",""4996""
","
","
","""event"",""trial"",""time""
""fullscreenenter"",""0"",""4996""
","
","695.4000000003725","<div class='center'><img src='run_exp/static/images/tutorial/blue.png' height='500'></p></div>","49","","","","","","","","","","","","","","","","","","","","","","",""
"","html-keyboard-response","29","145936","0.0-29.0","""event"",""trial"",""time""
""fullscreenenter"",""0"",""4996""
","
","
","""event"",""trial"",""time""
""fullscreenenter"",""0"",""4996""
","
","null","<div class='center'><p><img src='run_exp/static/images/tutorial/blue_win.png' height='500'></p></div>","null","","","","","","","","","","","","","","","","","","","","","","",""
"","instruc6","30","151525","0.0-30.0","""event"",""trial"",""time""
""fullscreenenter"",""0"",""4996""
","
","
","""event"",""trial"",""time""
""fullscreenenter"",""0"",""4996""
","
","null","run_exp/static/audio/clip_6_blue_beard_outcome.m4a","null","","","","","<div class='center'><p> See, he succeeded in robbing the ships most of the time but not every time. </p></div>","","","","","","","","","","","","","","","","","",""
"","html-keyboard-response","31","152269","0.0-31.0","""event"",""trial"",""time""
""fullscreenenter"",""0"",""4996""
","
","
","""event"",""trial"",""time""
""fullscreenenter"",""0"",""4996""
","
","741.5999999996275","<div class='center'><p> See, he succeeded in robbing the ships most of the time but not every time. </p><p><b>[Press the space bar to continue]</b></p></div>","32","","","","","","","","","","","","","","","","","","","","","","",""
"","audio-keyboard-response","32","170223","0.0-32.0","""event"",""trial"",""time""
""fullscreenenter"",""0"",""4996""
","
","
","""event"",""trial"",""time""
""fullscreenenter"",""0"",""4996""
","
","17951.799999998882","run_exp/static/audio/clip_7_pick_pirate.m4a","50","","","","","","","","","","","","","","","","","","","","","","",""
"","audio-keyboard-response","33","174890","0.0-33.0-0.0","""event"",""trial"",""time""
""fullscreenenter"",""0"",""4996""
","
","
","""event"",""trial"",""time""
""fullscreenenter"",""0"",""4996""
","
","4664.0999999996275","run_exp/static/audio/clip_8_chosen_pirate_win.m4a","32","","","","","","","","","","","","","","","","","","","","","","",""
"","audio-keyboard-response","34","177459","0.0-33.0-1.0","""event"",""trial"",""time""
""fullscreenenter"",""0"",""4996""
","
","
","""event"",""trial"",""time""
""fullscreenenter"",""0"",""4996""
","
","2566.2000000011176","run_exp/static/audio/clip_9_pick_a_pirate_again.m4a","51","","","","","","","","","","","","","","","","","","","","","","",""
"","audio-keyboard-response","35","181956","0.0-34.0-0.0","""event"",""trial"",""time""
""fullscreenenter"",""0"",""4996""
","
","
","""event"",""trial"",""time""
""fullscreenenter"",""0"",""4996""
","
","4493.9000000003725","run_exp/static/audio/clip_10_chosen_pirate_loss.m4a","32","","","","","","","","","","","","","","","","","","","","","","",""
"","instruc9","36","187655","0.0-35.0-0.0","""event"",""trial"",""time""
""fullscreenenter"",""0"",""4996""
","
","
","""event"",""trial"",""time""
""fullscreenenter"",""0"",""4996""
","
","null","run_exp/static/audio/clip_11_time_out.m4a","null","","","","","<div class='center'><p>If you don’t make your choice fast enough, you’ll have to wait a few seconds before you can make another one. </p><p><img src='run_exp/static/images/miscellaneous/hurry_up.png' height='500'></p></div>","","","","","","","","","","","","","","","","","",""
"","html-keyboard-response","37","188500","0.0-35.0-1.0","""event"",""trial"",""time""
""fullscreenenter"",""0"",""4996""
","
","
","""event"",""trial"",""time""
""fullscreenenter"",""0"",""4996""
","
","843.8000000007451","<div class='center'><p>If you don’t make your choice fast enough, you’ll have to wait a few seconds before you can make another one. </p><p><img src='run_exp/static/images/miscellaneous/hurry_up.png' height='500'></p><p><b>[Press the space bar to continue]</b></p></div>","32","","","","","","","","","","","","","","","","","","","","","","",""
"","instruc10","38","227872","0.0-35.0-2.0","""event"",""trial"",""time""
""fullscreenenter"",""0"",""4996""
","
","
","""event"",""trial"",""time""
""fullscreenenter"",""0"",""4996""
","
","null","run_exp/static/audio/clip_12_probe.m4a","null","","","","","<div class='center'><p>Once you've chosen a pirate, you’ll be shown the ship they are robbing. You will never rob the same ship twice. Ships can be told apart from one another by the image on them. These are the goods that they sell. See, this ship has a travel mug on it. </p><p> You’ll have to remember which island you saw each ship on. You will win more gold coins and hence more bonus money if you remember correctly! To help you remember, you can imagine a story. For example, here, you could imagine a mug full of water in the desert. Or, as another example, if on the forest island, your pirate robbed a ship with an apple on it, you could imagine an apple falling from a tree in the forest. </p><p><img src='run_exp/static/images/tutorial/example_probe.png' height='500'></p></div>","","","","","","","","","","","","","","","","","",""
"","html-keyboard-response","39","228700","0.0-35.0-3.0","""event"",""trial"",""time""
""fullscreenenter"",""0"",""4996""
","
","
","""event"",""trial"",""time""
""fullscreenenter"",""0"",""4996""
","
","824.5","<div class='center'><p>Once you've chosen a pirate, you’ll be shown the ship they are robbing. You will never rob the same ship twice. Ships can be told apart from one another by the image on them. These are the goods that they sell. See, this ship has a travel mug on it. </p><p> You’ll have to remember which island you saw each ship on. You will win more gold coins and hence more bonus money if you remember correctly! To help you remember, you can imagine a story. For example, here, you could imagine a mug full of water in the desert. Or, as another example, if on the forest island, your pirate robbed a ship with an apple on it, you could imagine an apple falling from a tree in the forest. </p><p><img src='run_exp/static/images/tutorial/example_probe.png' height='500'></p><p><b>[Press the space bar to continue]</b></p></div>","32","","","","","","","","","","","","","","","","","","","","","","",""
"","instruc11","40","245337","0.0-35.0-4.0","""event"",""trial"",""time""
""fullscreenenter"",""0"",""4996""
","
","
","""event"",""trial"",""time""
""fullscreenenter"",""0"",""4996""
","
","null","run_exp/static/audio/clip_13_changepoint.m4a","null","","","","","<div class='center'><p>How successful a pirate is at robbing ships will depend on the island you’re on.</p><p> A pirate may have visited this island many times before and gained a lot of practice robbing ships there.</p><p>So, they’re more likely to be successful than a pirate who has never visited the island before.</p></div>","","","","","","","","","","","","","","","","","",""
"","html-keyboard-response","41","245886","0.0-35.0-5.0","""event"",""trial"",""time""
""fullscreenenter"",""0"",""4996""
","
","
","""event"",""trial"",""time""
""fullscreenenter"",""0"",""4996""
","
","548.3000000007451","<div class='center'><p>How successful a pirate is at robbing ships will depend on the island you’re on.</p><p> A pirate may have visited this island many times before and gained a lot of practice robbing ships there.</p><p>So, they’re more likely to be successful than a pirate who has never visited the island before.</p><p><b>[Press the space bar to continue]</b></p></div>","32","","","","","","","","","","","","","","","","","","","","","","",""
"","instruc12","42","287130","0.0-35.0-6.0","""event"",""trial"",""time""
""fullscreenenter"",""0"",""4996""
","
","
","""event"",""trial"",""time""
""fullscreenenter"",""0"",""4996""
","
","null","run_exp/static/audio/clip_14_drift.m4a","null","","","","","<div class='center'><p>How successful a pirate is at robbing ships can also change over the time spent on the island. </p><p> Ships may hear from islanders about the pirates coming and will improve their protections against the attack. This may make it harder to rob them.</p><p> Ships may also become lazy and weaken the strength of their protections. This may make it easier to rob them.</p><br><p>Things are always changing on the high seas! So, try your best to pay attention!</p><p><img src='run_exp/static/images/tutorial/contingency.png' height='500'></p></div>","","","","","","","","","","","","","","","","","",""
"","html-keyboard-response","43","290488","0.0-35.0-7.0","""event"",""trial"",""time""
""fullscreenenter"",""0"",""4996""
","
","
","""event"",""trial"",""time""
""fullscreenenter"",""0"",""4996""
","
","3356.9000000003725","<div class='center'><p>How successful a pirate is at robbing ships can also change over the time spent on the island. </p><p> Ships may hear from islanders about the pirates coming and will improve their protections against the attack. This may make it harder to rob them.</p><p> Ships may also become lazy and weaken the strength of their protections. This may make it easier to rob them.</p><br><p>Things are always changing on the high seas! So, try your best to pay attention!</p><p><img src='run_exp/static/images/tutorial/contingency.png' height='500'></p><p><b>[Press the space bar to continue]</b></p></div>","32","","","","","","","","","","","","","","","","","","","","","","",""
"","instruc13","44","325954","0.0-35.0-8.0","""event"",""trial"",""time""
""fullscreenenter"",""0"",""4996""
","
","
","""event"",""trial"",""time""
""fullscreenenter"",""0"",""4996""
","
","null","run_exp/static/audio/clip_15_summary.m4a","null","","","","","<div class='center'><p>Let's go over the instructions quickly again. You have two important things to do: </p><b><p> 1. Pick the pirate who is the best at robbing ships on the current island. </p></b><b><p> 2. Remember on which island a ship was robbed.</p> </b><p>The amount of bonus money you can win depends on both.</p><p><br><p>Let’s try a practice game. The game will start by showing you the pirates. First, pick a pirate using the <b> 1, 2, 3 </b> keys on your keyboard. When you are shown a ship, try to remember which island you’re on by making up a story.</p><p>This is just a practice game, so you’re not playing for money. </p><p> Good luck! This game will be very difficult but try your best!</p></div>","","","","","","","","","","","","","","","","","",""
"","html-keyboard-response","45","326459","0.0-35.0-9.0","""event"",""trial"",""time""
""fullscreenenter"",""0"",""4996""
","
","
","""event"",""trial"",""time""
""fullscreenenter"",""0"",""4996""
","
","504.30000000074506","<div class='center'><p>Let's go over the instructions quickly again. You have two important things to do: </p><b><p> 1. Pick the pirate who is the best at robbing ships on the current island. </p></b><b><p> 2. Remember on which island a ship was robbed.</p> </b><p>The amount of bonus money you can win depends on both.</p><p><br><p>Let’s try a practice game. The game will start by showing you the pirates. First, pick a pirate using the <b> 1, 2, 3 </b> keys on your keyboard. When you are shown a ship, try to remember which island you’re on by making up a story.</p><p>This is just a practice game, so you’re not playing for money. </p><p> Good luck! This game will be very difficult but try your best!</p><p><b>[Press the space bar to continue]</b></p></div>","32","","","","","","","","","","","","","","","","","","","","","","",""
"","do_welcome","46","330482","0.0-35.0-10.0","""event"",""trial"",""time""
""fullscreenenter"",""0"",""4996""
","
","
","""event"",""trial"",""time""
""fullscreenenter"",""0"",""4996""
","
","null","","","","","","","","null","","","","","","","","","","","","","","","","",""
"","do_trial","47","336562","0.0-35.0-11.0","""event"",""trial"",""time""
""fullscreenenter"",""0"",""4996""
","
","
","""event"",""trial"",""time""
""fullscreenenter"",""0"",""4996""
","
","1572.800000000745","","","","","","","","51","1,0,0","","","","","","","","","","","","","","","",""
"","html-keyboard-response","48","337564","0.0-36.0-0.0","""event"",""trial"",""time""
""fullscreenenter"",""0"",""4996""
","
","
","""event"",""trial"",""time""
""fullscreenenter"",""0"",""4996""
","
","null","<p></p>","null","","","","","","","","","","","","","","","","","","","","","","",""
"","do_trial","49","344145","0.0-36.0-1.0","""event"",""trial"",""time""
""fullscreenenter"",""0"",""4996""
","
","
","""event"",""trial"",""time""
""fullscreenenter"",""0"",""4996""
","
","2075.2000000011176","","","","","","","","50","1,1,0","","","","","","","","","","","","","","","",""
"","html-keyboard-response","50","345147","0.0-37.0-0.0","""event"",""trial"",""time""
""fullscreenenter"",""0"",""4996""
","
","
","""event"",""trial"",""time""
""fullscreenenter"",""0"",""4996""
","
","null","<p></p>","null","","","","","","","","","","","","","","","","","","","","","","",""
"","do_trial","51","351711","0.0-37.0-1.0","""event"",""trial"",""time""
""fullscreenenter"",""0"",""4996""
","
","
","""event"",""trial"",""time""
""fullscreenenter"",""0"",""4996""
","
","2058.5999999996275","","","","","","","","49","1,0,1","","","","","","","","","","","","","","","",""
"","html-keyboard-response","52","352713","0.0-38.0-0.0","""event"",""trial"",""time""
""fullscreenenter"",""0"",""4996""
","
","
","""event"",""trial"",""time""
""fullscreenenter"",""0"",""4996""
","
","null","<p></p>","null","","","","","","","","","","","","","","","","","","","","","","",""
"","do_trial","53","358720","0.0-38.0-1.0","""event"",""trial"",""time""
""fullscreenenter"",""0"",""4996""
","
","
","""event"",""trial"",""time""
""fullscreenenter"",""0"",""4996""
","
","null","","","","","","","","null","0,1,0","","","","","","","","","","","","","","","",""
"","html-keyboard-response","54","359721","0.0-39.0-0.0","""event"",""trial"",""time""
""fullscreenenter"",""0"",""4996""
","
","
","""event"",""trial"",""time""
""fullscreenenter"",""0"",""4996""
","
","null","<p></p>","null","","","","","","","","","","","","","","","","","","","","","","",""
"","do_trial","55","365874","0.0-39.0-1.0","""event"",""trial"",""time""
""fullscreenenter"",""0"",""4996""
","
","
","""event"",""trial"",""time""
""fullscreenenter"",""0"",""4996""
","
","1644.8999999985099","","","","","","","","50","0,1,0","","","","","","","","","","","","","","","",""
"","html-keyboard-response","56","366875","0.0-40.0-0.0","""event"",""trial"",""time""
""fullscreenenter"",""0"",""4996""
","
","
","""event"",""trial"",""time""
""fullscreenenter"",""0"",""4996""
","
","null","<p></p>","null","","","","","","","","","","","","","","","","","","","","","","",""
"","do_trial","57","372364","0.0-40.0-1.0","""event"",""trial"",""time""
""fullscreenenter"",""0"",""4996""
","
","
","""event"",""trial"",""time""
""fullscreenenter"",""0"",""4996""
","
","982.1000000014901","","","","","","","","49","1,0,0","","","","","","","","","","","","","","","",""
"","do_bye","58","373868","0.0-41.0-0.0","""event"",""trial"",""time""
""fullscreenenter"",""0"",""4996""
","
","
","""event"",""trial"",""time""
""fullscreenenter"",""0"",""4996""
","
","null","","","","","","","","null","","","","","","","","","","","","","","","","",""
"","do_travel","59","382872","0.0-41.0-1.0","""event"",""trial"",""time""
""fullscreenenter"",""0"",""4996""
","
","
","""event"",""trial"",""time""
""fullscreenenter"",""0"",""4996""
","
","null","","","","","","","","null","","","","","","","","","","","","","","","","",""
"","do_welcome","60","386878","0.0-41.0-2.0","""event"",""trial"",""time""
""fullscreenenter"",""0"",""4996""
","
","
","""event"",""trial"",""time""
""fullscreenenter"",""0"",""4996""
","
","null","","","","","","","","null","","","","","","","","","","","","","","","","",""
"","do_trial","61","392651","0.0-41.0-3.0","""event"",""trial"",""time""
""fullscreenenter"",""0"",""4996""
","
","
","""event"",""trial"",""time""
""fullscreenenter"",""0"",""4996""
","
","1264.699999999255","","","","","","","","50","1,0,0","","","","","","","","","","","","","","","",""
"","html-keyboard-response","62","393652","0.0-42.0-0.0","""event"",""trial"",""time""
""fullscreenenter"",""0"",""4996""
","
","
","""event"",""trial"",""time""
""fullscreenenter"",""0"",""4996""
","
","null","<p></p>","null","","","","","","","","","","","","","","","","","","","","","","",""
"","do_trial","63","398837","0.0-42.0-1.0","""event"",""trial"",""time""
""fullscreenenter"",""0"",""4996""
","
","
","""event"",""trial"",""time""
""fullscreenenter"",""0"",""4996""
","
","678.5999999996275","","","","","","","","49","1,0,1","","","","","","","","","","","","","","","",""
"","html-keyboard-response","64","399839","0.0-43.0-0.0","""event"",""trial"",""time""
""fullscreenenter"",""0"",""4996""
","
","
","""event"",""trial"",""time""
""fullscreenenter"",""0"",""4996""
","
","null","<p></p>","null","","","","","","","","","","","","","","","","","","","","","","",""
"","do_trial","65","404792","0.0-43.0-1.0","""event"",""trial"",""time""
""fullscreenenter"",""0"",""4996""
","
","
","""event"",""trial"",""time""
""fullscreenenter"",""0"",""4996""
","
","447.09999999962747","","","","","","","","49","1,1,0","","","","","","","","","","","","","","","",""
"","html-keyboard-response","66","405794","0.0-44.0-0.0","""event"",""trial"",""time""
""fullscreenenter"",""0"",""4996""
","
","
","""event"",""trial"",""time""
""fullscreenenter"",""0"",""4996""
","
","null","<p></p>","null","","","","","","","","","","","","","","","","","","","","","","",""
"","do_trial","67","410907","0.0-44.0-1.0","""event"",""trial"",""time""
""fullscreenenter"",""0"",""4996""
","
","
","""event"",""trial"",""time""
""fullscreenenter"",""0"",""4996""
","
","606.3000000007451","","","","","","","","49","0,0,1","","","","","","","","","","","","","","","",""
"","html-keyboard-response","68","411909","0.0-45.0-0.0","""event"",""trial"",""time""
""fullscreenenter"",""0"",""4996""
","
","
","""event"",""trial"",""time""
""fullscreenenter"",""0"",""4996""
","
","null","<p></p>","null","","","","","","","","","","","","","","","","","","","","","","",""
"","do_trial","69","416777","0.0-45.0-1.0","""event"",""trial"",""time""
""fullscreenenter"",""0"",""4996""
","
","
","""event"",""trial"",""time""
""fullscreenenter"",""0"",""4996""
","
","360.09999999962747","","","","","","","","51","1,0,1","","","","","","","","","","","","","","","",""
"","html-keyboard-response","70","422832","0.0-46.0-0.0","""event"",""trial"",""time""
""fullscreenenter"",""0"",""4996""
","
","
","""event"",""trial"",""time""
""fullscreenenter"",""0"",""4996""
","
","6053.4000000003725","<div class='center'><p><img src='run_exp/static/images/tutorial/prac_best_pirate.png'  height='500'></p></div>","51","","","","","","","","","","","","","","","","","","","","","","",""
"","html-keyboard-response","71","425078","0.0-47.0-0.0","""event"",""trial"",""time""
""fullscreenenter"",""0"",""4996""
","
","
","""event"",""trial"",""time""
""fullscreenenter"",""0"",""4996""
","
","2242.7000000011176","<div class='center'><p>That's incorrect! Red beard was the best.</p><p><b>[Press the space bar to continue]</b></p></div>","32","","","","","","","","","","","","","","","","","","","","","","",""
"","html-keyboard-response","72","430196","0.0-47.0-1.0","""event"",""trial"",""time""
""fullscreenenter"",""0"",""4996""
","
","
","""event"",""trial"",""time""
""fullscreenenter"",""0"",""4996""
","
","5117.0999999996275","<div class='center'><p><img src='run_exp/static/images/tutorial/prac_source.png'  height='500'></p></div>","50","","","","","","","","","","","","","","","","","","","","","","",""
"","html-keyboard-response","73","432866","0.0-48.0-0.0","""event"",""trial"",""time""
""fullscreenenter"",""0"",""4996""
","
","
","""event"",""trial"",""time""
""fullscreenenter"",""0"",""4996""
","
","2668.300000000745","<div class='center'><p>That's correct! You saw this ship on the cavern island.</p><p><b>[Press the space bar to continue]</b></p></div>","32","","","","","","","","","","","","","","","","","","","","","","",""
"","quiz_beginning","74","444217","0.0-48.0-1.0","""event"",""trial"",""time""
""fullscreenenter"",""0"",""4996""
","
","
","""event"",""trial"",""time""
""fullscreenenter"",""0"",""4996""
","
","null","run_exp/static/audio/clip_16_quiz_intro.m4a","null","","","","","<div class='center'><p>Good job on the practice game! Now, you will be asked some true or false questions to make sure you really understand the rules of the game.</p><p> Press <b>'1'</b> on the keyboard for true and press <b>'2'</b> for false.</p></div>","","","","","","","","","","","","","","","","","",""
"","audio-keyboard-response","75","451660","0.0-48.0-2.0","""event"",""trial"",""time""
""fullscreenenter"",""0"",""4996""
","
","
","""event"",""trial"",""time""
""fullscreenenter"",""0"",""4996""
","
","7441.9000000003725","run_exp/static/audio/clip_17_q1.m4a","49","","","","","","","","","","","","","","","","","","","","","","",""
"","correct","76","454341","0.0-49.0-0.0","""event"",""trial"",""time""
""fullscreenenter"",""0"",""4996""
","
","
","""event"",""trial"",""time""
""fullscreenenter"",""0"",""4996""
","
","null","run_exp/static/audio/clip_18_correct.m4a","null","","","","","<div class='center'><p>That's correct!</p></div>","","","","","","","","","","","","","","","","","",""
"","html-keyboard-response","77","455492","0.0-49.0-1.0","""event"",""trial"",""time""
""fullscreenenter"",""0"",""4996""
","
","
","""event"",""trial"",""time""
""fullscreenenter"",""0"",""4996""
","
","1149.7000000011176","<div class='center'><p>That's correct!</p><p><b>[Press the space bar to continue]</b></p></div>","32","","","","","","","","","","","","","","","","","","","","","","",""
"","audio-keyboard-response","78","463183","0.0-49.0-2.0","""event"",""trial"",""time""
""fullscreenenter"",""0"",""4996""
","
","
","""event"",""trial"",""time""
""fullscreenenter"",""0"",""4996""
","
","7689.60000000149","run_exp/static/audio/clip_20_q2.m4a","50","","","","","","","","","","","","","","","","","","","","","","",""
"","correct","79","465858","0.0-50.0-0.0","""event"",""trial"",""time""
""fullscreenenter"",""0"",""4996""
","
","
","""event"",""trial"",""time""
""fullscreenenter"",""0"",""4996""
","
","null","run_exp/static/audio/clip_18_correct.m4a","null","","","","","<div class='center'><p>That's correct!</p></div>","","","","","","","","","","","","","","","","","",""
"","html-keyboard-response","80","466244","0.0-50.0-1.0","""event"",""trial"",""time""
""fullscreenenter"",""0"",""4996""
","
","
","""event"",""trial"",""time""
""fullscreenenter"",""0"",""4996""
","
","385.2000000011176","<div class='center'><p>That's correct!</p><p><b>[Press the space bar to continue]</b></p></div>","32","","","","","","","","","","","","","","","","","","","","","","",""
"","audio-keyboard-response","81","473234","0.0-50.0-2.0","""event"",""trial"",""time""
""fullscreenenter"",""0"",""4996""
","
","
","""event"",""trial"",""time""
""fullscreenenter"",""0"",""4996""
","
","6988.299999998882","run_exp/static/audio/clip_22_q3.m4a","50","","","","","","","","","","","","","","","","","","","","","","",""
"","correct","82","475888","0.0-51.0-0.0","""event"",""trial"",""time""
""fullscreenenter"",""0"",""4996""
","
","
","""event"",""trial"",""time""
""fullscreenenter"",""0"",""4996""
","
","null","run_exp/static/audio/clip_18_correct.m4a","null","","","","","<div class='center'><p>That's correct!</p></div>","","","","","","","","","","","","","","","","","",""
"","html-keyboard-response","83","476774","0.0-51.0-1.0","""event"",""trial"",""time""
""fullscreenenter"",""0"",""4996""
","
","
","""event"",""trial"",""time""
""fullscreenenter"",""0"",""4996""
","
","884.6999999992549","<div class='center'><p>That's correct!</p><p><b>[Press the space bar to continue]</b></p></div>","32","","","","","","","","","","","","","","","","","","","","","","",""
"","audio-keyboard-response","84","484247","0.0-51.0-2.0","""event"",""trial"",""time""
""fullscreenenter"",""0"",""4996""
","
","
","""event"",""trial"",""time""
""fullscreenenter"",""0"",""4996""
","
","7470.5999999996275","run_exp/static/audio/clip_24_q4.m4a","49","","","","","","","","","","","","","","","","","","","","","","",""
"","correct","85","486942","0.0-52.0-0.0","""event"",""trial"",""time""
""fullscreenenter"",""0"",""4996""
","
","
","""event"",""trial"",""time""
""fullscreenenter"",""0"",""4996""
","
","null","run_exp/static/audio/clip_18_correct.m4a","null","","","","","<div class='center'><p>That's correct!</p></div>","","","","","","","","","","","","","","","","","",""
"","html-keyboard-response","86","488769","0.0-52.0-1.0","""event"",""trial"",""time""
""fullscreenenter"",""0"",""4996""
","
","
","""event"",""trial"",""time""
""fullscreenenter"",""0"",""4996""
","
","1826.2999999988824","<div class='center'><p>That's correct!</p><p><b>[Press the space bar to continue]</b></p></div>","32","","","","","","","","","","","","","","","","","","","","","","",""
"","q_all_corr","87","497438","0.0-53.0-0.0","""event"",""trial"",""time""
""fullscreenenter"",""0"",""4996""
","
","
","""event"",""trial"",""time""
""fullscreenenter"",""0"",""4996""
","
","null","run_exp/static/audio/clip_27_quiz_all_correct.m4a","null","","","","","<div class='center'><p>Good job! You’re now ready to move on to the real game! Remember this game will be difficult but don't get discouraged and try your best!</p></div>","","","","","","","","","","","","","","","","","",""
"","html-keyboard-response","88","498118","0.0-53.0-1.0","""event"",""trial"",""time""
""fullscreenenter"",""0"",""4996""
","
","
","""event"",""trial"",""time""
""fullscreenenter"",""0"",""4996""
","
","678.0999999996275","<div class='center'><p>Good job! You’re now ready to move on to the real game! Remember this game will be difficult but don't get discouraged and try your best!</p><p><b>[Press the space bar to continue]</b></p></div>","32","","","","","","","","","","","","","","","","","","","","","","",""
"","do_welcome","89","502124","0.0-54.0-0.0","""event"",""trial"",""time""
""fullscreenenter"",""0"",""4996""
","
","
","""event"",""trial"",""time""
""fullscreenenter"",""0"",""4996""
","
","null","","","","","","","","null","","","","","","","","","","","","","","","","",""
"","do_trial","90","507881","0.0-55.0-0.0","""event"",""trial"",""time""
""fullscreenenter"",""0"",""4996""
","
","
","""event"",""trial"",""time""
""fullscreenenter"",""0"",""4996""
","
","1196.5999999996275","","","","","","","","50","1,0,0","0","city","0","probe-117","0.6","0.3","0.1","0","","","","","","","",""
"","html-keyboard-response","91","508883","0.0-55.0-1.0","""event"",""trial"",""time""
""fullscreenenter"",""0"",""4996""
","
","
","""event"",""trial"",""time""
""fullscreenenter"",""0"",""4996""
","
","null","<p></p>","null","","","","","","","","","","","","","","","","","","","","","","",""
"","do_trial","92","514227","0.0-56.0-0.0","""event"",""trial"",""time""
""fullscreenenter"",""0"",""4996""
","
","
","""event"",""trial"",""time""
""fullscreenenter"",""0"",""4996""
","
","788.2999999988824","","","","","","","","49","1,0,0","0","city","1","probe-176","0.5916154978488543","0.27187829894961457","0.11327236508108483","1","","","","","","","",""
"","html-keyboard-response","93","515228","0.0-56.0-1.0","""event"",""trial"",""time""
""fullscreenenter"",""0"",""4996""
","
","
","""event"",""trial"",""time""
""fullscreenenter"",""0"",""4996""
","
","null","<p></p>","null","","","","","","","","","","","","","","","","","","","","","","",""
"","do_trial","94","520239","0.0-57.0-0.0","""event"",""trial"",""time""
""fullscreenenter"",""0"",""4996""
","
","
","""event"",""trial"",""time""
""fullscreenenter"",""0"",""4996""
","
","454.40000000037253","","","","","","","","49","1,0,0","0","city","2","probe-88","0.6261435078669821","0.29570717284465026","0.21591256522304683","1","","","","","","","",""
"","html-keyboard-response","95","521244","0.0-57.0-1.0","""event"",""trial"",""time""
""fullscreenenter"",""0"",""4996""
","
","
","""event"",""trial"",""time""
""fullscreenenter"",""0"",""4996""
","
","null","<p></p>","null","","","","","","","","","","","","","","","","","","","","","","",""
"","do_trial","96","526900","0.0-58.0-0.0","""event"",""trial"",""time""
""fullscreenenter"",""0"",""4996""
","
","
","""event"",""trial"",""time""
""fullscreenenter"",""0"",""4996""
","
","1101.5","","","","","","","","49","1,1,0","0","city","3","probe-173","0.5273173439102827","0.3339937571632","0.10421769058144294","1","","","","","","","",""
"","html-keyboard-response","97","527902","0.0-58.0-1.0","""event"",""trial"",""time""
""fullscreenenter"",""0"",""4996""
","
","
","""event"",""trial"",""time""
""fullscreenenter"",""0"",""4996""
","
","null","<p></p>","null","","","","","","","","","","","","","","","","","","","","","","",""
"","do_trial","98","533760","0.0-59.0-0.0","""event"",""trial"",""time""
""fullscreenenter"",""0"",""4996""
","
","
","""event"",""trial"",""time""
""fullscreenenter"",""0"",""4996""
","
","1300.199999999255","","","","","","","","51","1,0,0","0","city","4","probe-124","0.5206620985459575","0.3510261928174439","0.14469211858784753","0","","","","","","","",""
"","html-keyboard-response","99","534762","0.0-59.0-1.0","""event"",""trial"",""time""
""fullscreenenter"",""0"",""4996""
","
","
","""event"",""trial"",""time""
""fullscreenenter"",""0"",""4996""
","
","null","<p></p>","null","","","","","","","","","","","","","","","","","","","","","","",""
"","do_trial","100","540190","0.0-60.0-0.0","""event"",""trial"",""time""
""fullscreenenter"",""0"",""4996""
","
","
","""event"",""trial"",""time""
""fullscreenenter"",""0"",""4996""
","
","872.1999999992549","","","","","","","","49","1,0,0","0","city","5","probe-165","0.713628664657239","0.3889260328433002","0.10099839862277361","1","","","","","","","",""
"","html-keyboard-response","101","541191","0.0-60.0-1.0","""event"",""trial"",""time""
""fullscreenenter"",""0"",""4996""
","
","
","""event"",""trial"",""time""
""fullscreenenter"",""0"",""4996""
","
","null","<p></p>","null","","","","","","","","","","","","","","","","","","","","","","",""
"","do_trial","102","546559","0.0-61.0-0.0","""event"",""trial"",""time""
""fullscreenenter"",""0"",""4996""
","
","
","""event"",""trial"",""time""
""fullscreenenter"",""0"",""4996""
","
","812.4000000003725","","","","","","","","49","1,0,0","0","city","6","probe-78","0.5793086129932146","0.3673968333394615","0.1553496454435274","1","","","","","","","",""
"","html-keyboard-response","103","547561","0.0-61.0-1.0","""event"",""trial"",""time""
""fullscreenenter"",""0"",""4996""
","
","
","""event"",""trial"",""time""
""fullscreenenter"",""0"",""4996""
","
","null","<p></p>","null","","","","","","","","","","","","","","","","","","","","","","",""
"","do_trial","104","552760","0.0-62.0-0.0","""event"",""trial"",""time""
""fullscreenenter"",""0"",""4996""
","
","
","""event"",""trial"",""time""
""fullscreenenter"",""0"",""4996""
","
","643.5","","","","","","","","49","0,1,0","0","city","7","probe-85","0.5965714011588752","0.3309830512146579","0.08482169258798507","0","","","","","","","",""
"","html-keyboard-response","105","553762","0.0-62.0-1.0","""event"",""trial"",""time""
""fullscreenenter"",""0"",""4996""
","
","
","""event"",""trial"",""time""
""fullscreenenter"",""0"",""4996""
","
","null","<p></p>","null","","","","","","","","","","","","","","","","","","","","","","",""
"","do_trial","106","559105","0.0-63.0-0.0","""event"",""trial"",""time""
""fullscreenenter"",""0"",""4996""
","
","
","""event"",""trial"",""time""
""fullscreenenter"",""0"",""4996""
","
","787.9000000003725","","","","","","","","49","1,1,0","0","city","8","probe-25","0.5486094388124059","0.44846425895321645","0.1552037320189164","1","","","","","","","",""
"","html-keyboard-response","107","560107","0.0-63.0-1.0","""event"",""trial"",""time""
""fullscreenenter"",""0"",""4996""
","
","
","""event"",""trial"",""time""
""fullscreenenter"",""0"",""4996""
","
","null","<p></p>","null","","","","","","","","","","","","","","","","","","","","","","",""
"","do_trial","108","565441","0.0-64.0-0.0","""event"",""trial"",""time""
""fullscreenenter"",""0"",""4996""
","
","
","""event"",""trial"",""time""
""fullscreenenter"",""0"",""4996""
","
","779","","","","","","","","49","1,0,0","0","city","9","probe-127","0.6815454913832015","0.46241413107697177","0.20833377774667927","1","","","","","","","",""
"","html-keyboard-response","109","566443","0.0-64.0-1.0","""event"",""trial"",""time""
""fullscreenenter"",""0"",""4996""
","
","
","""event"",""trial"",""time""
""fullscreenenter"",""0"",""4996""
","
","null","<p></p>","null","","","","","","","","","","","","","","","","","","","","","","",""
"","do_trial","110","571447","0.0-65.0-0.0","""event"",""trial"",""time""
""fullscreenenter"",""0"",""4996""
","
","
","""event"",""trial"",""time""
""fullscreenenter"",""0"",""4996""
","
","448.09999999962747","","","","","","","","49","0,0,0","0","city","10","probe-217","0.7558502239193889","0.26707265635501154","0.2540671783173306","0","","","","","","","",""
"","html-keyboard-response","111","572448","0.0-65.0-1.0","""event"",""trial"",""time""
""fullscreenenter"",""0"",""4996""
","
","
","""event"",""trial"",""time""
""fullscreenenter"",""0"",""4996""
","
","null","<p></p>","null","","","","","","","","","","","","","","","","","","","","","","",""
"","do_trial","112","578141","0.0-66.0-0.0","""event"",""trial"",""time""
""fullscreenenter"",""0"",""4996""
","
","
","""event"",""trial"",""time""
""fullscreenenter"",""0"",""4996""
","
","1137.7000000011176","","","","","","","","49","1,1,0","0","city","11","probe-138","0.7130117280244082","0.35531881571290214","0.10916448287157428","1","","","","","","","",""
"","html-keyboard-response","113","579143","0.0-66.0-1.0","""event"",""trial"",""time""
""fullscreenenter"",""0"",""4996""
","
","
","""event"",""trial"",""time""
""fullscreenenter"",""0"",""4996""
","
","null","<p></p>","null","","","","","","","","","","","","","","","","","","","","","","",""
"","do_trial","114","584522","0.0-67.0-0.0","""event"",""trial"",""time""
""fullscreenenter"",""0"",""4996""
","
","
","""event"",""trial"",""time""
""fullscreenenter"",""0"",""4996""
","
","822","","","","","","","","49","1,1,0","0","city","12","probe-53","0.6198342608679611","0.39921634933980893","0.09710561641132301","1","","","","","","","",""
"","html-keyboard-response","115","585523","0.0-67.0-1.0","""event"",""trial"",""time""
""fullscreenenter"",""0"",""4996""
","
","
","""event"",""trial"",""time""
""fullscreenenter"",""0"",""4996""
","
","null","<p></p>","null","","","","","","","","","","","","","","","","","","","","","","",""
"","do_trial","116","590924","0.0-68.0-0.0","""event"",""trial"",""time""
""fullscreenenter"",""0"",""4996""
","
","
","""event"",""trial"",""time""
""fullscreenenter"",""0"",""4996""
","
","844.9000000003725","","","","","","","","49","1,0,1","0","city","13","probe-107","0.6371052238856634","0.3074528571954635","0.1637911575881487","1","","","","","","","",""
"","html-keyboard-response","117","591925","0.0-68.0-1.0","""event"",""trial"",""time""
""fullscreenenter"",""0"",""4996""
","
","
","""event"",""trial"",""time""
""fullscreenenter"",""0"",""4996""
","
","null","<p></p>","null","","","","","","","","","","","","","","","","","","","","","","",""
"","do_trial","118","597643","0.0-69.0-0.0","""event"",""trial"",""time""
""fullscreenenter"",""0"",""4996""
","
","
","""event"",""trial"",""time""
""fullscreenenter"",""0"",""4996""
","
","1161.800000000745","","","","","","","","51","1,0,0","0","city","14","probe-30","0.5973784012111482","0.22885197244762204","0.28765172833575814","0","","","","","","","",""
"","html-keyboard-response","119","598645","0.0-69.0-1.0","""event"",""trial"",""time""
""fullscreenenter"",""0"",""4996""
","
","
","""event"",""trial"",""time""
""fullscreenenter"",""0"",""4996""
","
","null","<p></p>","null","","","","","","","","","","","","","","","","","","","","","","",""
"","do_trial","120","603966","0.0-70.0-0.0","""event"",""trial"",""time""
""fullscreenenter"",""0"",""4996""
","
","
","""event"",""trial"",""time""
""fullscreenenter"",""0"",""4996""
","
","765.7999999988824","","","","","","","","49","0,0,0","0","city","15","probe-68","0.5174475855532613","0.34111041832117645","0.26975131006209396","0","","","","","","","",""
"","html-keyboard-response","121","604968","0.0-70.0-1.0","""event"",""trial"",""time""
""fullscreenenter"",""0"",""4996""
","
","
","""event"",""trial"",""time""
""fullscreenenter"",""0"",""4996""
","
","null","<p></p>","null","","","","","","","","","","","","","","","","","","","","","","",""
"","do_trial","122","610189","0.0-71.0-0.0","""event"",""trial"",""time""
""fullscreenenter"",""0"",""4996""
","
","
","""event"",""trial"",""time""
""fullscreenenter"",""0"",""4996""
","
","666.5999999996275","","","","","","","","49","0,1,0","0","city","16","probe-148","0.7353113179515279","0.4297003960215905","0.20853224866651332","0","","","","","","","",""
"","html-keyboard-response","123","611191","0.0-71.0-1.0","""event"",""trial"",""time""
""fullscreenenter"",""0"",""4996""
","
","
","""event"",""trial"",""time""
""fullscreenenter"",""0"",""4996""
","
","null","<p></p>","null","","","","","","","","","","","","","","","","","","","","","","",""
"","do_trial","124","616080","0.0-72.0-0.0","""event"",""trial"",""time""
""fullscreenenter"",""0"",""4996""
","
","
","""event"",""trial"",""time""
""fullscreenenter"",""0"",""4996""
","
","333.80000000074506","","","","","","","","50","1,0,0","0","city","17","probe-59","0.9118279944909089","0.3606692956150719","0.08797502881983657","0","","","","","","","",""
"","html-keyboard-response","125","617082","0.0-72.0-1.0","""event"",""trial"",""time""
""fullscreenenter"",""0"",""4996""
","
","
","""event"",""trial"",""time""
""fullscreenenter"",""0"",""4996""
","
","null","<p></p>","null","","","","","","","","","","","","","","","","","","","","","","",""
"","do_trial","126","622564","0.0-73.0-0.0","""event"",""trial"",""time""
""fullscreenenter"",""0"",""4996""
","
","
","""event"",""trial"",""time""
""fullscreenenter"",""0"",""4996""
","
","925.5999999996275","","","","","","","","49","1,0,0","0","city","18","probe-209","0.8760378824014688","0.112710250518952","0.0580140455008919","1","","","","","","","",""
"","html-keyboard-response","127","623566","0.0-73.0-1.0","""event"",""trial"",""time""
""fullscreenenter"",""0"",""4996""
","
","
","""event"",""trial"",""time""
""fullscreenenter"",""0"",""4996""
","
","null","<p></p>","null","","","","","","","","","","","","","","","","","","","","","","",""
"","do_trial","128","628873","0.0-74.0-0.0","""event"",""trial"",""time""
""fullscreenenter"",""0"",""4996""
","
","
","""event"",""trial"",""time""
""fullscreenenter"",""0"",""4996""
","
","751.3000000007451","","","","","","","","49","1,0,0","0","city","19","probe-154","0.6809889246435532","0.18421085111861807","0.06755098541774032","1","","","","","","","",""
"","html-keyboard-response","129","629874","0.0-74.0-1.0","""event"",""trial"",""time""
""fullscreenenter"",""0"",""4996""
","
","
","""event"",""trial"",""time""
""fullscreenenter"",""0"",""4996""
","
","null","<p></p>","null","","","","","","","","","","","","","","","","","","","","","","",""
"","do_trial","130","635300","0.0-75.0-0.0","""event"",""trial"",""time""
""fullscreenenter"",""0"",""4996""
","
","
","""event"",""trial"",""time""
""fullscreenenter"",""0"",""4996""
","
","871.5","","","","","","","","49","1,0,0","0","city","20","probe-201","0.7080880976375368","0.2207598779866415","0.06479949917599796","1","","","","","","","",""
"","html-keyboard-response","131","636302","0.0-75.0-1.0","""event"",""trial"",""time""
""fullscreenenter"",""0"",""4996""
","
","
","""event"",""trial"",""time""
""fullscreenenter"",""0"",""4996""
","
","null","<p></p>","null","","","","","","","","","","","","","","","","","","","","","","",""
"","do_trial","132","641416","0.0-76.0-0.0","""event"",""trial"",""time""
""fullscreenenter"",""0"",""4996""
","
","
","""event"",""trial"",""time""
""fullscreenenter"",""0"",""4996""
","
","558.5","","","","","","","","49","0,0,1","0","city","21","probe-119","0.6431479232948201","0.3401834642175484","0.08188714666827931","0","","","","","","","",""
"","html-keyboard-response","133","642418","0.0-76.0-1.0","""event"",""trial"",""time""
""fullscreenenter"",""0"",""4996""
","
","
","""event"",""trial"",""time""
""fullscreenenter"",""0"",""4996""
","
","null","<p></p>","null","","","","","","","","","","","","","","","","","","","","","","",""
"","do_trial","134","647782","0.0-77.0-0.0","""event"",""trial"",""time""
""fullscreenenter"",""0"",""4996""
","
","
","""event"",""trial"",""time""
""fullscreenenter"",""0"",""4996""
","
","808","","","","","","","","49","0,1,0","0","city","22","probe-37","0.5660410233110753","0.573045951446967","0.103148500450991","0","","","","","","","",""
"","html-keyboard-response","135","648784","0.0-77.0-1.0","""event"",""trial"",""time""
""fullscreenenter"",""0"",""4996""
","
","
","""event"",""trial"",""time""
""fullscreenenter"",""0"",""4996""
","
","null","<p></p>","null","","","","","","","","","","","","","","","","","","","","","","",""
"","do_trial","136","655313","0.0-78.0-0.0","""event"",""trial"",""time""
""fullscreenenter"",""0"",""4996""
","
","
","""event"",""trial"",""time""
""fullscreenenter"",""0"",""4996""
","
","1973.7999999988824","","","","","","","","49","0,1,0","0","city","23","probe-69","0.571856677729612","0.3130929576156738","0.12719854023459098","0","","","","","","","",""
"","html-keyboard-response","137","656315","0.0-78.0-1.0","""event"",""trial"",""time""
""fullscreenenter"",""0"",""4996""
","
","
","""event"",""trial"",""time""
""fullscreenenter"",""0"",""4996""
","
","null","<p></p>","null","","","","","","","","","","","","","","","","","","","","","","",""
"","do_trial","138","661186","0.0-79.0-0.0","""event"",""trial"",""time""
""fullscreenenter"",""0"",""4996""
","
","
","""event"",""trial"",""time""
""fullscreenenter"",""0"",""4996""
","
","315.69999999925494","","","","","","","","50","1,0,0","0","city","24","probe-01","0.5320177536203868","0.2371504089214728","0.07419693525083351","0","","","","","","","",""
"","html-keyboard-response","139","662188","0.0-79.0-1.0","""event"",""trial"",""time""
""fullscreenenter"",""0"",""4996""
","
","
","""event"",""trial"",""time""
""fullscreenenter"",""0"",""4996""
","
","null","<p></p>","null","","","","","","","","","","","","","","","","","","","","","","",""
"","do_trial","140","667239","0.0-80.0-0.0","""event"",""trial"",""time""
""fullscreenenter"",""0"",""4996""
","
","
","""event"",""trial"",""time""
""fullscreenenter"",""0"",""4996""
","
","496.19999999925494","","","","","","","","49","0,0,0","0","city","25","probe-189","0.5929468730515293","0.19498318261595884","0.06314926784748541","0","","","","","","","",""
"","html-keyboard-response","141","668241","0.0-80.0-1.0","""event"",""trial"",""time""
""fullscreenenter"",""0"",""4996""
","
","
","""event"",""trial"",""time""
""fullscreenenter"",""0"",""4996""
","
","null","<p></p>","null","","","","","","","","","","","","","","","","","","","","","","",""
"","do_trial","142","673372","0.0-81.0-0.0","""event"",""trial"",""time""
""fullscreenenter"",""0"",""4996""
","
","
","""event"",""trial"",""time""
""fullscreenenter"",""0"",""4996""
","
","575.8000000007451","","","","","","","","51","0,1,0","0","city","26","probe-08","0.657289564286305","0.3452218117904648","0.10140726853192701","0","","","","","","","",""
"","html-keyboard-response","143","674374","0.0-81.0-1.0","""event"",""trial"",""time""
""fullscreenenter"",""0"",""4996""
","
","
","""event"",""trial"",""time""
""fullscreenenter"",""0"",""4996""
","
","null","<p></p>","null","","","","","","","","","","","","","","","","","","","","","","",""
"","do_trial","144","679870","0.0-82.0-0.0","""event"",""trial"",""time""
""fullscreenenter"",""0"",""4996""
","
","
","""event"",""trial"",""time""
""fullscreenenter"",""0"",""4996""
","
","941.4000000003725","","","","","","","","51","1,0,0","0","city","27","probe-198","0.6820950312651363","0.4634054903580966","0.07641469963265499","0","","","","","","","",""
"","html-keyboard-response","145","680871","0.0-82.0-1.0","""event"",""trial"",""time""
""fullscreenenter"",""0"",""4996""
","
","
","""event"",""trial"",""time""
""fullscreenenter"",""0"",""4996""
","
","null","<p></p>","null","","","","","","","","","","","","","","","","","","","","","","",""
"","do_trial","146","685855","0.0-83.0-0.0","""event"",""trial"",""time""
""fullscreenenter"",""0"",""4996""
","
","
","""event"",""trial"",""time""
""fullscreenenter"",""0"",""4996""
","
","428.5","","","","","","","","49","1,1,0","0","city","28","probe-137","0.7172683319845237","0.38217321879488986","0.16375702133264863","1","","","","","","","",""
"","html-keyboard-response","147","686856","0.0-83.0-1.0","""event"",""trial"",""time""
""fullscreenenter"",""0"",""4996""
","
","
","""event"",""trial"",""time""
""fullscreenenter"",""0"",""4996""
","
","null","<p></p>","null","","","","","","","","","","","","","","","","","","","","","","",""
"","do_trial","148","691997","0.0-84.0-0.0","""event"",""trial"",""time""
""fullscreenenter"",""0"",""4996""
","
","
","""event"",""trial"",""time""
""fullscreenenter"",""0"",""4996""
","
","583.4000000003725","","","","","","","","49","1,0,1","0","city","29","probe-52","0.6534170150969216","0.422016293913976","0.08123490707414377","1","","","","","","","",""
"","html-keyboard-response","149","692999","0.0-84.0-1.0","""event"",""trial"",""time""
""fullscreenenter"",""0"",""4996""
","
","
","""event"",""trial"",""time""
""fullscreenenter"",""0"",""4996""
","
","null","<p></p>","null","","","","","","","","","","","","","","","","","","","","","","",""
"","do_bye","150","694504","0.0-85.0-0.0","""event"",""trial"",""time""
""fullscreenenter"",""0"",""4996""
","
","
","""event"",""trial"",""time""
""fullscreenenter"",""0"",""4996""
","
","null","","","","","","","","null","","","","","","","","","","","","","","","","",""
"","break","151","706238","0.0-85.0-1.0","""event"",""trial"",""time""
""fullscreenenter"",""0"",""4996""
","
","
","""event"",""trial"",""time""
""fullscreenenter"",""0"",""4996""
","
","11733.299999998882","<div class='center'><p>Time to take a quick break! You have 2 minutes to rest, but you can move on sooner if you'd like.</p><p> Press the <b>space bar</b> to continue.</p></div>","32","","","","","","","","","","","","","","","","","","","","","","",""
"","do_travel","152","715242","0.0-86.0-0.0","""event"",""trial"",""time""
""fullscreenenter"",""0"",""4996""
","
","
","""event"",""trial"",""time""
""fullscreenenter"",""0"",""4996""
","
","null","","","","","","","","null","","","","","","","","","","","","","","","","",""
"","do_welcome","153","719248","0.0-86.0-1.0","""event"",""trial"",""time""
""fullscreenenter"",""0"",""4996""
","
","
","""event"",""trial"",""time""
""fullscreenenter"",""0"",""4996""
","
","null","","","","","","","","null","","","","","","","","","","","","","","","","",""
"","do_trial","154","725216","0.0-87.0-0.0","""event"",""trial"",""time""
""fullscreenenter"",""0"",""4996""
","
","
","""event"",""trial"",""time""
""fullscreenenter"",""0"",""4996""
","
","1405.5999999996275","","","","","","","","51","1,1,0","1","mountain","30","probe-20","1","0.5044796552070934","0.14922535154917246","0","","","","","","","",""
"","html-keyboard-response","155","726217","0.0-87.0-1.0","""event"",""trial"",""time""
""fullscreenenter"",""0"",""4996""
","
","
","""event"",""trial"",""time""
""fullscreenenter"",""0"",""4996""
","
","null","<p></p>","null","","","","","","","","","","","","","","","","","","","","","","",""
"","do_trial","156","731220","0.0-88.0-0.0","""event"",""trial"",""time""
""fullscreenenter"",""0"",""4996""
","
","
","""event"",""trial"",""time""
""fullscreenenter"",""0"",""4996""
","
","444.80000000074506","","","","","","","","50","1,1,0","1","mountain","31","probe-163","1","0.47289019776028424","0.13920728866935725","1","","","","","","","",""
"","html-keyboard-response","157","732222","0.0-88.0-1.0","""event"",""trial"",""time""
""fullscreenenter"",""0"",""4996""
","
","
","""event"",""trial"",""time""
""fullscreenenter"",""0"",""4996""
","
","null","<p></p>","null","","","","","","","","","","","","","","","","","","","","","","",""
"","do_trial","158","737802","0.0-89.0-0.0","""event"",""trial"",""time""
""fullscreenenter"",""0"",""4996""
","
","
","""event"",""trial"",""time""
""fullscreenenter"",""0"",""4996""
","
","1025","","","","","","","","50","1,0,0","1","mountain","32","probe-131","1","0.2604067579553963","0.0792121057311704","0","","","","","","","",""
"","html-keyboard-response","159","738804","0.0-89.0-1.0","""event"",""trial"",""time""
""fullscreenenter"",""0"",""4996""
","
","
","""event"",""trial"",""time""
""fullscreenenter"",""0"",""4996""
","
","null","<p></p>","null","","","","","","","","","","","","","","","","","","","","","","",""
"","do_trial","160","743998","0.0-90.0-0.0","""event"",""trial"",""time""
""fullscreenenter"",""0"",""4996""
","
","
","""event"",""trial"",""time""
""fullscreenenter"",""0"",""4996""
","
","638","","","","","","","","50","1,0,0","1","mountain","33","probe-175","0.8365163827165201","0.28577203005459045","0.1509740046595952","0","","","","","","","",""
"","html-keyboard-response","161","745000","0.0-90.0-1.0","""event"",""trial"",""time""
""fullscreenenter"",""0"",""4996""
","
","
","""event"",""trial"",""time""
""fullscreenenter"",""0"",""4996""
","
","null","<p></p>","null","","","","","","","","","","","","","","","","","","","","","","",""
"","do_trial","162","750138","0.0-91.0-0.0","""event"",""trial"",""time""
""fullscreenenter"",""0"",""4996""
","
","
","""event"",""trial"",""time""
""fullscreenenter"",""0"",""4996""
","
","582","","","","","","","","49","1,0,0","1","mountain","34","probe-133","0.5849963044221472","0.2622750559493773","0.07370952641183724","1","","","","","","","",""
"","html-keyboard-response","163","751140","0.0-91.0-1.0","""event"",""trial"",""time""
""fullscreenenter"",""0"",""4996""
","
","
","""event"",""trial"",""time""
""fullscreenenter"",""0"",""4996""
","
","null","<p></p>","null","","","","","","","","","","","","","","","","","","","","","","",""
"","do_trial","164","756499","0.0-92.0-0.0","""event"",""trial"",""time""
""fullscreenenter"",""0"",""4996""
","
","
","""event"",""trial"",""time""
""fullscreenenter"",""0"",""4996""
","
","799.4000000003725","","","","","","","","49","1,0,0","1","mountain","35","probe-22","0.637837438104504","0.3403321037964248","0.15621042362304213","1","","","","","","","",""
"","html-keyboard-response","165","757501","0.0-92.0-1.0","""event"",""trial"",""time""
""fullscreenenter"",""0"",""4996""
","
","
","""event"",""trial"",""time""
""fullscreenenter"",""0"",""4996""
","
","null","<p></p>","null","","","","","","","","","","","","","","","","","","","","","","",""
"","do_trial","166","762844","0.0-93.0-0.0","""event"",""trial"",""time""
""fullscreenenter"",""0"",""4996""
","
","
","""event"",""trial"",""time""
""fullscreenenter"",""0"",""4996""
","
","787.0999999996275","","","","","","","","49","1,1,0","1","mountain","36","probe-214","0.6142803425666318","0.31310836985448853","0.281932103655133","1","","","","","","","",""
"","html-keyboard-response","167","763846","0.0-93.0-1.0","""event"",""trial"",""time""
""fullscreenenter"",""0"",""4996""
","
","
","""event"",""trial"",""time""
""fullscreenenter"",""0"",""4996""
","
","null","<p></p>","null","","","","","","","","","","","","","","","","","","","","","","",""
"","do_trial","168","769302","0.0-94.0-0.0","""event"",""trial"",""time""
""fullscreenenter"",""0"",""4996""
","
","
","""event"",""trial"",""time""
""fullscreenenter"",""0"",""4996""
","
","901.1999999992549","","","","","","","","49","1,0,1","1","mountain","37","probe-16","0.7706063279632005","0.34201099988576744","0.28092829151975435","1","","","","","","","",""
"","html-keyboard-response","169","770304","0.0-94.0-1.0","""event"",""trial"",""time""
""fullscreenenter"",""0"",""4996""
","
","
","""event"",""trial"",""time""
""fullscreenenter"",""0"",""4996""
","
","null","<p></p>","null","","","","","","","","","","","","","","","","","","","","","","",""
"","do_trial","170","775548","0.0-95.0-0.0","""event"",""trial"",""time""
""fullscreenenter"",""0"",""4996""
","
","
","""event"",""trial"",""time""
""fullscreenenter"",""0"",""4996""
","
","685.2999999988824","","","","","","","","49","1,0,0","1","mountain","38","probe-110","0.6727993802660442","0.2443693921104337","0.25748284586204834","1","","","","","","","",""
"","html-keyboard-response","171","776550","0.0-95.0-1.0","""event"",""trial"",""time""
""fullscreenenter"",""0"",""4996""
","
","
","""event"",""trial"",""time""
""fullscreenenter"",""0"",""4996""
","
","null","<p></p>","null","","","","","","","","","","","","","","","","","","","","","","",""
"","do_trial","172","781278","0.0-96.0-0.0","""event"",""trial"",""time""
""fullscreenenter"",""0"",""4996""
","
","
","""event"",""trial"",""time""
""fullscreenenter"",""0"",""4996""
","
","172.69999999925494","","","","","","","","49","1,0,0","1","mountain","39","probe-82","0.6401390000369575","0.26489799382793466","0.10871753125306816","1","","","","","","","",""
"","html-keyboard-response","173","782280","0.0-96.0-1.0","""event"",""trial"",""time""
""fullscreenenter"",""0"",""4996""
","
","
","""event"",""trial"",""time""
""fullscreenenter"",""0"",""4996""
","
","null","<p></p>","null","","","","","","","","","","","","","","","","","","","","","","",""
"","do_trial","174","787434","0.0-97.0-0.0","""event"",""trial"",""time""
""fullscreenenter"",""0"",""4996""
","
","
","""event"",""trial"",""time""
""fullscreenenter"",""0"",""4996""
","
","597.5","","","","","","","","49","1,0,0","1","mountain","40","probe-185","0.5375659473236839","0.2684884904440053","0.05206748152961971","1","","","","","","","",""
"","html-keyboard-response","175","788436","0.0-97.0-1.0","""event"",""trial"",""time""
""fullscreenenter"",""0"",""4996""
","
","
","""event"",""trial"",""time""
""fullscreenenter"",""0"",""4996""
","
","null","<p></p>","null","","","","","","","","","","","","","","","","","","","","","","",""
"","do_trial","176","793936","0.0-98.0-0.0","""event"",""trial"",""time""
""fullscreenenter"",""0"",""4996""
","
","
","""event"",""trial"",""time""
""fullscreenenter"",""0"",""4996""
","
","942.3000000007451","","","","","","","","49","0,0,0","1","mountain","41","probe-168","0.6062368939039169","0.3699994075377161","0.15041660081080208","0","","","","","","","",""
"","html-keyboard-response","177","794938","0.0-98.0-1.0","""event"",""trial"",""time""
""fullscreenenter"",""0"",""4996""
","
","
","""event"",""trial"",""time""
""fullscreenenter"",""0"",""4996""
","
","null","<p></p>","null","","","","","","","","","","","","","","","","","","","","","","",""
"","do_trial","178","800171","0.0-99.0-0.0","""event"",""trial"",""time""
""fullscreenenter"",""0"",""4996""
","
","
","""event"",""trial"",""time""
""fullscreenenter"",""0"",""4996""
","
","677.6999999992549","","","","","","","","49","1,0,1","1","mountain","42","probe-230","0.3436575606543712","0.4228945131257917","0.1944100907147593","1","","","","","","","",""
"","html-keyboard-response","179","801173","0.0-99.0-1.0","""event"",""trial"",""time""
""fullscreenenter"",""0"",""4996""
","
","
","""event"",""trial"",""time""
""fullscreenenter"",""0"",""4996""
","
","null","<p></p>","null","","","","","","","","","","","","","","","","","","","","","","",""
"","do_trial","180","807174","0.0-100.0-0.0","""event"",""trial"",""time""
""fullscreenenter"",""0"",""4996""
","
","
","""event"",""trial"",""time""
""fullscreenenter"",""0"",""4996""
","
","1446.199999999255","","","","","","","","51","0,0,0","1","mountain","43","probe-225","0.11576673364756822","0.37210754911878546","0.1958547525635547","0","","","","","","","",""
"","html-keyboard-response","181","808176","0.0-100.0-1.0","""event"",""trial"",""time""
""fullscreenenter"",""0"",""4996""
","
","
","""event"",""trial"",""time""
""fullscreenenter"",""0"",""4996""
","
","null","<p></p>","null","","","","","","","","","","","","","","","","","","","","","","",""
"","do_trial","182","813163","0.0-101.0-0.0","""event"",""trial"",""time""
""fullscreenenter"",""0"",""4996""
","
","
","""event"",""trial"",""time""
""fullscreenenter"",""0"",""4996""
","
","431.7000000011176","","","","","","","","50","0,0,0","1","mountain","44","probe-192","0.05608265958645912","0.37910253084121714","0.22734298566676236","0","","","","","","","",""
"","html-keyboard-response","183","814165","0.0-101.0-1.0","""event"",""trial"",""time""
""fullscreenenter"",""0"",""4996""
","
","
","""event"",""trial"",""time""
""fullscreenenter"",""0"",""4996""
","
","null","<p></p>","null","","","","","","","","","","","","","","","","","","","","","","",""
"","do_trial","184","819437","0.0-102.0-0.0","""event"",""trial"",""time""
""fullscreenenter"",""0"",""4996""
","
","
","""event"",""trial"",""time""
""fullscreenenter"",""0"",""4996""
","
","716.5999999996275","","","","","","","","49","0,1,1","1","mountain","45","probe-105","0.09377074289384188","0.4618000252986937","0.3010781278788184","0","","","","","","","",""
"","html-keyboard-response","185","820439","0.0-102.0-1.0","""event"",""trial"",""time""
""fullscreenenter"",""0"",""4996""
","
","
","""event"",""trial"",""time""
""fullscreenenter"",""0"",""4996""
","
","null","<p></p>","null","","","","","","","","","","","","","","","","","","","","","","",""
"","do_trial","186","825959","0.0-103.0-0.0","""event"",""trial"",""time""
""fullscreenenter"",""0"",""4996""
","
","
","""event"",""trial"",""time""
""fullscreenenter"",""0"",""4996""
","
","964.6999999992549","","","","","","","","51","0,0,0","1","mountain","46","probe-91","0.09292687436581432","0.6202482049974324","0.3758348189824811","0","","","","","","","",""
"","html-keyboard-response","187","826961","0.0-103.0-1.0","""event"",""trial"",""time""
""fullscreenenter"",""0"",""4996""
","
","
","""event"",""trial"",""time""
""fullscreenenter"",""0"",""4996""
","
","null","<p></p>","null","","","","","","","","","","","","","","","","","","","","","","",""
"","do_trial","188","831997","0.0-104.0-0.0","""event"",""trial"",""time""
""fullscreenenter"",""0"",""4996""
","
","
","""event"",""trial"",""time""
""fullscreenenter"",""0"",""4996""
","
","481.7000000011176","","","","","","","","49","1,1,0","1","mountain","47","probe-179","0.07935363963567539","0.6707571534225987","0.30655407694293","1","","","","","","","",""
"","html-keyboard-response","189","832999","0.0-104.0-1.0","""event"",""trial"",""time""
""fullscreenenter"",""0"",""4996""
","
","
","""event"",""trial"",""time""
""fullscreenenter"",""0"",""4996""
","
","null","<p></p>","null","","","","","","","","","","","","","","","","","","","","","","",""
"","do_trial","190","838203","0.0-105.0-0.0","""event"",""trial"",""time""
""fullscreenenter"",""0"",""4996""
","
","
","""event"",""trial"",""time""
""fullscreenenter"",""0"",""4996""
","
","648.0999999996275","","","","","","","","49","0,0,1","1","mountain","48","probe-169","0.30925208297697343","0.5584610570976806","0.31940328642010324","0","","","","","","","",""
"","html-keyboard-response","191","839204","0.0-105.0-1.0","""event"",""trial"",""time""
""fullscreenenter"",""0"",""4996""
","
","
","""event"",""trial"",""time""
""fullscreenenter"",""0"",""4996""
","
","null","<p></p>","null","","","","","","","","","","","","","","","","","","","","","","",""
"","do_trial","192","844580","0.0-106.0-0.0","""event"",""trial"",""time""
""fullscreenenter"",""0"",""4996""
","
","
","""event"",""trial"",""time""
""fullscreenenter"",""0"",""4996""
","
","819.5999999996275","","","","","","","","50","1,0,0","1","mountain","49","probe-208","0.16703074567898876","0.5468292814181527","0.3915283055348415","0","","","","","","","",""
"","html-keyboard-response","193","845582","0.0-106.0-1.0","""event"",""trial"",""time""
""fullscreenenter"",""0"",""4996""
","
","
","""event"",""trial"",""time""
""fullscreenenter"",""0"",""4996""
","
","null","<p></p>","null","","","","","","","","","","","","","","","","","","","","","","",""
"","do_trial","194","851144","0.0-107.0-0.0","""event"",""trial"",""time""
""fullscreenenter"",""0"",""4996""
","
","
","""event"",""trial"",""time""
""fullscreenenter"",""0"",""4996""
","
","1006.2000000011176","","","","","","","","50","0,0,0","1","mountain","50","probe-215","0.12398010798314645","0.5327488924124019","0.3035064329945762","0","","","","","","","",""
"","html-keyboard-response","195","852146","0.0-107.0-1.0","""event"",""trial"",""time""
""fullscreenenter"",""0"",""4996""
","
","
","""event"",""trial"",""time""
""fullscreenenter"",""0"",""4996""
","
","null","<p></p>","null","","","","","","","","","","","","","","","","","","","","","","",""
"","do_trial","196","857112","0.0-108.0-0.0","""event"",""trial"",""time""
""fullscreenenter"",""0"",""4996""
","
","
","""event"",""trial"",""time""
""fullscreenenter"",""0"",""4996""
","
","410.80000000074506","","","","","","","","49","0,0,0","1","mountain","51","probe-150","0.2442191257422391","0.7461870756544065","0.17958365213685112","0","","","","","","","",""
"","html-keyboard-response","197","858114","0.0-108.0-1.0","""event"",""trial"",""time""
""fullscreenenter"",""0"",""4996""
","
","
","""event"",""trial"",""time""
""fullscreenenter"",""0"",""4996""
","
","null","<p></p>","null","","","","","","","","","","","","","","","","","","","","","","",""
"","do_trial","198","863109","0.0-109.0-0.0","""event"",""trial"",""time""
""fullscreenenter"",""0"",""4996""
","
","
","""event"",""trial"",""time""
""fullscreenenter"",""0"",""4996""
","
","440.2000000011176","","","","","","","","49","0,1,1","1","mountain","52","probe-212","0.23540735222915302","0.7144050108502711","0.27387872552120446","0","","","","","","","",""
"","html-keyboard-response","199","864111","0.0-109.0-1.0","""event"",""trial"",""time""
""fullscreenenter"",""0"",""4996""
","
","
","""event"",""trial"",""time""
""fullscreenenter"",""0"",""4996""
","
","null","<p></p>","null","","","","","","","","","","","","","","","","","","","","","","",""
"","do_trial","200","869804","0.0-110.0-0.0","""event"",""trial"",""time""
""fullscreenenter"",""0"",""4996""
","
","
","""event"",""trial"",""time""
""fullscreenenter"",""0"",""4996""
","
","1137.4000000003725","","","","","","","","50","1,0,0","1","mountain","53","probe-44","0.14138636815763803","0.6933238455234002","0.27983095067880986","0","","","","","","","",""
"","html-keyboard-response","201","870806","0.0-110.0-1.0","""event"",""trial"",""time""
""fullscreenenter"",""0"",""4996""
","
","
","""event"",""trial"",""time""
""fullscreenenter"",""0"",""4996""
","
","null","<p></p>","null","","","","","","","","","","","","","","","","","","","","","","",""
"","do_trial","202","876157","0.0-111.0-0.0","""event"",""trial"",""time""
""fullscreenenter"",""0"",""4996""
","
","
","""event"",""trial"",""time""
""fullscreenenter"",""0"",""4996""
","
","795.0999999996275","","","","","","","","51","0,0,0","1","mountain","54","probe-90","0.07333226130366464","0.6428024632764823","0.2746647331239813","0","","","","","","","",""
"","html-keyboard-response","203","877159","0.0-111.0-1.0","""event"",""trial"",""time""
""fullscreenenter"",""0"",""4996""
","
","
","""event"",""trial"",""time""
""fullscreenenter"",""0"",""4996""
","
","null","<p></p>","null","","","","","","","","","","","","","","","","","","","","","","",""
"","do_trial","204","882099","0.0-112.0-0.0","""event"",""trial"",""time""
""fullscreenenter"",""0"",""4996""
","
","
","""event"",""trial"",""time""
""fullscreenenter"",""0"",""4996""
","
","385.2000000011176","","","","","","","","49","0,0,0","1","mountain","55","probe-147","0.07529697680852217","0.7137290585941264","0.17675079274322733","0","","","","","","","",""
"","html-keyboard-response","205","883101","0.0-112.0-1.0","""event"",""trial"",""time""
""fullscreenenter"",""0"",""4996""
","
","
","""event"",""trial"",""time""
""fullscreenenter"",""0"",""4996""
","
","null","<p></p>","null","","","","","","","","","","","","","","","","","","","","","","",""
"","do_trial","206","888111","0.0-113.0-0.0","""event"",""trial"",""time""
""fullscreenenter"",""0"",""4996""
","
","
","""event"",""trial"",""time""
""fullscreenenter"",""0"",""4996""
","
","454.19999999925494","","","","","","","","49","0,1,0","1","mountain","56","probe-156","0.1435930991448536","0.6860792781374386","0.29025888787369897","0","","","","","","","",""
"","html-keyboard-response","207","889113","0.0-113.0-1.0","""event"",""trial"",""time""
""fullscreenenter"",""0"",""4996""
","
","
","""event"",""trial"",""time""
""fullscreenenter"",""0"",""4996""
","
","null","<p></p>","null","","","","","","","","","","","","","","","","","","","","","","",""
"","do_trial","208","894428","0.0-114.0-0.0","""event"",""trial"",""time""
""fullscreenenter"",""0"",""4996""
","
","
","""event"",""trial"",""time""
""fullscreenenter"",""0"",""4996""
","
","758","","","","","","","","49","0,1,1","1","mountain","57","probe-227","0.09838075451286636","0.6172110950085705","0.2165953387535778","0","","","","","","","",""
"","html-keyboard-response","209","895429","0.0-114.0-1.0","""event"",""trial"",""time""
""fullscreenenter"",""0"",""4996""
","
","
","""event"",""trial"",""time""
""fullscreenenter"",""0"",""4996""
","
","null","<p></p>","null","","","","","","","","","","","","","","","","","","","","","","",""
"","do_trial","210","901070","0.0-115.0-0.0","""event"",""trial"",""time""
""fullscreenenter"",""0"",""4996""
","
","
","""event"",""trial"",""time""
""fullscreenenter"",""0"",""4996""
","
","1085","","","","","","","","49","0,1,0","1","mountain","58","probe-54","0.056968670772420654","0.7269681292603168","0.2631222419742099","0","","","","","","","",""
"","html-keyboard-response","211","902072","0.0-115.0-1.0","""event"",""trial"",""time""
""fullscreenenter"",""0"",""4996""
","
","
","""event"",""trial"",""time""
""fullscreenenter"",""0"",""4996""
","
","null","<p></p>","null","","","","","","","","","","","","","","","","","","","","","","",""
"","do_trial","212","907358","0.0-116.0-0.0","""event"",""trial"",""time""
""fullscreenenter"",""0"",""4996""
","
","
","""event"",""trial"",""time""
""fullscreenenter"",""0"",""4996""
","
","729.1999999992549","","","","","","","","49","0,0,1","1","mountain","59","probe-155","0.19911825625236737","0.6383481299764973","0.3119704228056272","0","","","","","","","",""
"","html-keyboard-response","213","908359","0.0-116.0-1.0","""event"",""trial"",""time""
""fullscreenenter"",""0"",""4996""
","
","
","""event"",""trial"",""time""
""fullscreenenter"",""0"",""4996""
","
","null","<p></p>","null","","","","","","","","","","","","","","","","","","","","","","",""
"","do_trial","214","913496","0.0-117.0-0.0","""event"",""trial"",""time""
""fullscreenenter"",""0"",""4996""
","
","
","""event"",""trial"",""time""
""fullscreenenter"",""0"",""4996""
","
","580.5","","","","","","","","49","1,0,1","1","mountain","60","probe-162","0.24957985385734485","0.5689138366482119","0.22169420107402132","1","","","","","","","",""
"","html-keyboard-response","215","914498","0.0-117.0-1.0","""event"",""trial"",""time""
""fullscreenenter"",""0"",""4996""
","
","
","""event"",""trial"",""time""
""fullscreenenter"",""0"",""4996""
","
","null","<p></p>","null","","","","","","","","","","","","","","","","","","","","","","",""
"","do_trial","216","919523","0.0-118.0-0.0","""event"",""trial"",""time""
""fullscreenenter"",""0"",""4996""
","
","
","""event"",""trial"",""time""
""fullscreenenter"",""0"",""4996""
","
","468.90000000037253","","","","","","","","49","1,0,0","1","mountain","61","probe-205","0.14465316270055778","0.4909354128546994","0.15027080458639133","1","","","","","","","",""
"","html-keyboard-response","217","920525","0.0-118.0-1.0","""event"",""trial"",""time""
""fullscreenenter"",""0"",""4996""
","
","
","""event"",""trial"",""time""
""fullscreenenter"",""0"",""4996""
","
","null","<p></p>","null","","","","","","","","","","","","","","","","","","","","","","",""
"","do_trial","218","925860","0.0-119.0-0.0","""event"",""trial"",""time""
""fullscreenenter"",""0"",""4996""
","
","
","""event"",""trial"",""time""
""fullscreenenter"",""0"",""4996""
","
","778.3000000007451","","","","","","","","49","0,1,0","1","mountain","62","probe-191","0.1250182368640008","0.4634505432304205","0.13071873177830767","0","","","","","","","",""
"","html-keyboard-response","219","926861","0.0-119.0-1.0","""event"",""trial"",""time""
""fullscreenenter"",""0"",""4996""
","
","
","""event"",""trial"",""time""
""fullscreenenter"",""0"",""4996""
","
","null","<p></p>","null","","","","","","","","","","","","","","","","","","","","","","",""
"","do_trial","220","932317","0.0-120.0-0.0","""event"",""trial"",""time""
""fullscreenenter"",""0"",""4996""
","
","
","""event"",""trial"",""time""
""fullscreenenter"",""0"",""4996""
","
","900.0999999996275","","","","","","","","49","0,1,0","1","mountain","63","probe-166","0.12317134685711131","0.5922019264963618","0.23590931107719887","0","","","","","","","",""
"","html-keyboard-response","221","933318","0.0-120.0-1.0","""event"",""trial"",""time""
""fullscreenenter"",""0"",""4996""
","
","
","""event"",""trial"",""time""
""fullscreenenter"",""0"",""4996""
","
","null","<p></p>","null","","","","","","","","","","","","","","","","","","","","","","",""
"","do_trial","222","938883","0.0-121.0-0.0","""event"",""trial"",""time""
""fullscreenenter"",""0"",""4996""
","
","
","""event"",""trial"",""time""
""fullscreenenter"",""0"",""4996""
","
","1007.4000000003725","","","","","","","","51","0,0,0","1","mountain","64","probe-73","0.1423781155048166","0.6077956353272292","0.2944114221735208","0","","","","","","","",""
"","html-keyboard-response","223","939884","0.0-121.0-1.0","""event"",""trial"",""time""
""fullscreenenter"",""0"",""4996""
","
","
","""event"",""trial"",""time""
""fullscreenenter"",""0"",""4996""
","
","null","<p></p>","null","","","","","","","","","","","","","","","","","","","","","","",""
"","do_trial","224","945264","0.0-122.0-0.0","""event"",""trial"",""time""
""fullscreenenter"",""0"",""4996""
","
","
","""event"",""trial"",""time""
""fullscreenenter"",""0"",""4996""
","
","822.9000000003725","","","","","","","","49","0,1,0","1","mountain","65","probe-196","0.11577172605189322","0.6579812015805747","0.1881206725127001","0","","","","","","","",""
"","html-keyboard-response","225","946265","0.0-122.0-1.0","""event"",""trial"",""time""
""fullscreenenter"",""0"",""4996""
","
","
","""event"",""trial"",""time""
""fullscreenenter"",""0"",""4996""
","
","null","<p></p>","null","","","","","","","","","","","","","","","","","","","","","","",""
"","do_trial","226","951715","0.0-123.0-0.0","""event"",""trial"",""time""
""fullscreenenter"",""0"",""4996""
","
","
","""event"",""trial"",""time""
""fullscreenenter"",""0"",""4996""
","
","892.7000000011176","","","","","","","","49","0,0,1","1","mountain","66","probe-79","0.09449800648864994","0.7138643130964092","0.2895597265775574","0","","","","","","","",""
"","html-keyboard-response","227","952717","0.0-123.0-1.0","""event"",""trial"",""time""
""fullscreenenter"",""0"",""4996""
","
","
","""event"",""trial"",""time""
""fullscreenenter"",""0"",""4996""
","
","null","<p></p>","null","","","","","","","","","","","","","","","","","","","","","","",""
"","do_trial","228","958272","0.0-124.0-0.0","""event"",""trial"",""time""
""fullscreenenter"",""0"",""4996""
","
","
","""event"",""trial"",""time""
""fullscreenenter"",""0"",""4996""
","
","998.1999999992549","","","","","","","","49","0,1,1","1","mountain","67","probe-19","0.05541876809098057","0.63730701113172","0.3376168336205991","0","","","","","","","",""
"","html-keyboard-response","229","959274","0.0-124.0-1.0","""event"",""trial"",""time""
""fullscreenenter"",""0"",""4996""
","
","
","""event"",""trial"",""time""
""fullscreenenter"",""0"",""4996""
","
","null","<p></p>","null","","","","","","","","","","","","","","","","","","","","","","",""
"","do_trial","230","964348","0.0-125.0-0.0","""event"",""trial"",""time""
""fullscreenenter"",""0"",""4996""
","
","
","""event"",""trial"",""time""
""fullscreenenter"",""0"",""4996""
","
","517.2999999988824","","","","","","","","49","0,1,0","1","mountain","68","probe-142","0.12046082327073336","0.4607675078856465","0.2191602948136547","0","","","","","","","",""
"","html-keyboard-response","231","965350","0.0-125.0-1.0","""event"",""trial"",""time""
""fullscreenenter"",""0"",""4996""
","
","
","""event"",""trial"",""time""
""fullscreenenter"",""0"",""4996""
","
","null","<p></p>","null","","","","","","","","","","","","","","","","","","","","","","",""
"","do_trial","232","970818","0.0-126.0-0.0","""event"",""trial"",""time""
""fullscreenenter"",""0"",""4996""
","
","
","""event"",""trial"",""time""
""fullscreenenter"",""0"",""4996""
","
","912","","","","","","","","49","0,1,0","1","mountain","69","probe-94","0.10685956542863233","0.43340621319478045","0.23491883042735706","0","","","","","","","",""
"","html-keyboard-response","233","971820","0.0-126.0-1.0","""event"",""trial"",""time""
""fullscreenenter"",""0"",""4996""
","
","
","""event"",""trial"",""time""
""fullscreenenter"",""0"",""4996""
","
","null","<p></p>","null","","","","","","","","","","","","","","","","","","","","","","",""
"","do_bye","234","973325","0.0-127.0-0.0","""event"",""trial"",""time""
""fullscreenenter"",""0"",""4996""
","
","
","""event"",""trial"",""time""
""fullscreenenter"",""0"",""4996""
","
","null","","","","","","","","null","","","","","","","","","","","","","","","","",""
"","break","235","976918","0.0-127.0-1.0","""event"",""trial"",""time""
""fullscreenenter"",""0"",""4996""
","
","
","""event"",""trial"",""time""
""fullscreenenter"",""0"",""4996""
","
","3591.9000000003725","<div class='center'><p>Time to take a quick break! You have 2 minutes to rest, but you can move on sooner if you'd like.</p><p> Press the <b>space bar</b> to continue.</p></div>","32","","","","","","","","","","","","","","","","","","","","","","",""
"","do_travel","236","985921","0.0-128.0-0.0","""event"",""trial"",""time""
""fullscreenenter"",""0"",""4996""
","
","
","""event"",""trial"",""time""
""fullscreenenter"",""0"",""4996""
","
","null","","","","","","","","null","","","","","","","","","","","","","","","","",""
"","do_welcome","237","989927","0.0-128.0-1.0","""event"",""trial"",""time""
""fullscreenenter"",""0"",""4996""
","
","
","""event"",""trial"",""time""
""fullscreenenter"",""0"",""4996""
","
","null","","","","","","","","null","","","","","","","","","","","","","","","","",""
"","do_trial","238","996365","0.0-129.0-0.0","""event"",""trial"",""time""
""fullscreenenter"",""0"",""4996""
","
","
","""event"",""trial"",""time""
""fullscreenenter"",""0"",""4996""
","
","1879.300000000745","","","","","","","","49","1,1,0","2","forest","70","probe-157","0.11389205602266124","1","0.21689457754930636","1","","","","","","","",""
"","html-keyboard-response","239","997366","0.0-129.0-1.0","""event"",""trial"",""time""
""fullscreenenter"",""0"",""4996""
","
","
","""event"",""trial"",""time""
""fullscreenenter"",""0"",""4996""
","
","null","<p></p>","null","","","","","","","","","","","","","","","","","","","","","","",""
"","do_trial","240","1002762","0.0-130.0-0.0","""event"",""trial"",""time""
""fullscreenenter"",""0"",""4996""
","
","
","""event"",""trial"",""time""
""fullscreenenter"",""0"",""4996""
","
","830.0999999996275","","","","","","","","49","0,1,0","2","forest","71","probe-47","0.15573066656321458","1","0.0724584565409311","0","","","","","","","",""
"","html-keyboard-response","241","1003764","0.0-130.0-1.0","""event"",""trial"",""time""
""fullscreenenter"",""0"",""4996""
","
","
","""event"",""trial"",""time""
""fullscreenenter"",""0"",""4996""
","
","null","<p></p>","null","","","","","","","","","","","","","","","","","","","","","","",""
"","do_trial","242","1008689","0.0-131.0-0.0","""event"",""trial"",""time""
""fullscreenenter"",""0"",""4996""
","
","
","""event"",""trial"",""time""
""fullscreenenter"",""0"",""4996""
","
","368.30000000074506","","","","","","","","50","0,1,0","2","forest","72","probe-113","0.2898390454439749","0.8811551606694897","0.24432344728271255","1","","","","","","","",""
"","html-keyboard-response","243","1009691","0.0-131.0-1.0","""event"",""trial"",""time""
""fullscreenenter"",""0"",""4996""
","
","
","""event"",""trial"",""time""
""fullscreenenter"",""0"",""4996""
","
","null","<p></p>","null","","","","","","","","","","","","","","","","","","","","","","",""
"","do_trial","244","1015034","0.0-132.0-0.0","""event"",""trial"",""time""
""fullscreenenter"",""0"",""4996""
","
","
","""event"",""trial"",""time""
""fullscreenenter"",""0"",""4996""
","
","788","","","","","","","","50","0,1,0","2","forest","73","probe-219","0.08418336588050876","0.8301515232692219","0.29133786878943524","1","","","","","","","",""
"","html-keyboard-response","245","1016036","0.0-132.0-1.0","""event"",""trial"",""time""
""fullscreenenter"",""0"",""4996""
","
","
","""event"",""trial"",""time""
""fullscreenenter"",""0"",""4996""
","
","null","<p></p>","null","","","","","","","","","","","","","","","","","","","","","","",""
"","do_trial","246","1021762","0.0-133.0-0.0","""event"",""trial"",""time""
""fullscreenenter"",""0"",""4996""
","
","
","""event"",""trial"",""time""
""fullscreenenter"",""0"",""4996""
","
","1169.5","","","","","","","","50","0,1,1","2","forest","74","probe-75","0.12149477491282554","0.7122387556158354","0.26803008957253777","1","","","","","","","",""
"","html-keyboard-response","247","1022763","0.0-133.0-1.0","""event"",""trial"",""time""
""fullscreenenter"",""0"",""4996""
","
","
","""event"",""trial"",""time""
""fullscreenenter"",""0"",""4996""
","
","null","<p></p>","null","","","","","","","","","","","","","","","","","","","","","","",""
"","do_trial","248","1027969","0.0-134.0-0.0","""event"",""trial"",""time""
""fullscreenenter"",""0"",""4996""
","
","
","""event"",""trial"",""time""
""fullscreenenter"",""0"",""4996""
","
","651.4000000003725","","","","","","","","50","0,0,0","2","forest","75","probe-181","0.15252630865228917","0.6398350759048979","0.2888795567706442","0","","","","","","","",""
"","html-keyboard-response","249","1028971","0.0-134.0-1.0","""event"",""trial"",""time""
""fullscreenenter"",""0"",""4996""
","
","
","""event"",""trial"",""time""
""fullscreenenter"",""0"",""4996""
","
","null","<p></p>","null","","","","","","","","","","","","","","","","","","","","","","",""
"","do_trial","250","1034901","0.0-135.0-0.0","""event"",""trial"",""time""
""fullscreenenter"",""0"",""4996""
","
","
","""event"",""trial"",""time""
""fullscreenenter"",""0"",""4996""
","
","1373.3999999985099","","","","","","","","50","1,0,0","2","forest","76","probe-35","0.18126109640679247","0.6303495113919995","0.16314476294282934","0","","","","","","","",""
"","html-keyboard-response","251","1035902","0.0-135.0-1.0","""event"",""trial"",""time""
""fullscreenenter"",""0"",""4996""
","
","
","""event"",""trial"",""time""
""fullscreenenter"",""0"",""4996""
","
","null","<p></p>","null","","","","","","","","","","","","","","","","","","","","","","",""
"","do_trial","252","1040884","0.0-136.0-0.0","""event"",""trial"",""time""
""fullscreenenter"",""0"",""4996""
","
","
","""event"",""trial"",""time""
""fullscreenenter"",""0"",""4996""
","
","426","","","","","","","","51","0,1,0","2","forest","77","probe-46","0.05796249556831292","0.6426781210728837","0.22064876470421302","0","","","","","","","",""
"","html-keyboard-response","253","1041886","0.0-136.0-1.0","""event"",""trial"",""time""
""fullscreenenter"",""0"",""4996""
","
","
","""event"",""trial"",""time""
""fullscreenenter"",""0"",""4996""
","
","null","<p></p>","null","","","","","","","","","","","","","","","","","","","","","","",""
"","do_trial","254","1046795","0.0-137.0-0.0","""event"",""trial"",""time""
""fullscreenenter"",""0"",""4996""
","
","
","""event"",""trial"",""time""
""fullscreenenter"",""0"",""4996""
","
","353.69999999925494","","","","","","","","49","0,1,0","2","forest","78","probe-32","0.07303172207874836","0.6394166058931309","0.23188664253209587","0","","","","","","","",""
"","html-keyboard-response","255","1047797","0.0-137.0-1.0","""event"",""trial"",""time""
""fullscreenenter"",""0"",""4996""
","
","
","""event"",""trial"",""time""
""fullscreenenter"",""0"",""4996""
","
","null","<p></p>","null","","","","","","","","","","","","","","","","","","","","","","",""
"","do_trial","256","1053070","0.0-138.0-0.0","""event"",""trial"",""time""
""fullscreenenter"",""0"",""4996""
","
","
","""event"",""trial"",""time""
""fullscreenenter"",""0"",""4996""
","
","718","","","","","","","","50","0,0,1","2","forest","79","probe-71","0.0585830591744061","0.7212851692287275","0.2988052054467764","0","","","","","","","",""
"","html-keyboard-response","257","1054072","0.0-138.0-1.0","""event"",""trial"",""time""
""fullscreenenter"",""0"",""4996""
","
","
","""event"",""trial"",""time""
""fullscreenenter"",""0"",""4996""
","
","null","<p></p>","null","","","","","","","","","","","","","","","","","","","","","","",""
"","do_trial","258","1059584","0.0-139.0-0.0","""event"",""trial"",""time""
""fullscreenenter"",""0"",""4996""
","
","
","""event"",""trial"",""time""
""fullscreenenter"",""0"",""4996""
","
","955.5999999996275","","","","","","","","50","0,1,1","2","forest","80","probe-03","0.086837454695081","0.6624540422235025","0.27443790702249976","1","","","","","","","",""
"","html-keyboard-response","259","1060586","0.0-139.0-1.0","""event"",""trial"",""time""
""fullscreenenter"",""0"",""4996""
","
","
","""event"",""trial"",""time""
""fullscreenenter"",""0"",""4996""
","
","null","<p></p>","null","","","","","","","","","","","","","","","","","","","","","","",""
"","do_trial","260","1065897","0.0-140.0-0.0","""event"",""trial"",""time""
""fullscreenenter"",""0"",""4996""
","
","
","""event"",""trial"",""time""
""fullscreenenter"",""0"",""4996""
","
","754.4000000003725","","","","","","","","50","0,0,0","2","forest","81","probe-06","0.08768606682373672","0.5351515078071072","0.3362799747066433","0","","","","","","","",""
"","html-keyboard-response","261","1066898","0.0-140.0-1.0","""event"",""trial"",""time""
""fullscreenenter"",""0"",""4996""
","
","
","""event"",""trial"",""time""
""fullscreenenter"",""0"",""4996""
","
","null","<p></p>","null","","","","","","","","","","","","","","","","","","","","","","",""
