"success","trial_type","trial_index","time_elapsed","internal_node_id","interactions","blur_events","focus_events","fullscreenenter_events","fullscreenexit_events","rt","stimulus","key_press","subject_id","participant_id","age","gender","prompt","response","choice_outcomes","context_n","context_img_id","trial_n","probe_img_id","pR_red","pR_white","pR_black","outcome","contextArray_ind","validImageProbes","invalidImageProbes","pRew_Red","pRew_White","pRew_Black","availableForMemProbe","choice_blocks"
"true","fullscreen","0","3015","0.0-0.0","""event"",""trial"",""time""
""fullscreenenter"",""0"",""2028""
","
","
","""event"",""trial"",""time""
""fullscreenenter"",""0"",""2028""
","
","","","","","","","","","","","","","","","","","","","","","","","","","",""
"","pavlovia","1","3022","0.0-1.0","""event"",""trial"",""time""
""fullscreenenter"",""0"",""2028""
","
","
","""event"",""trial"",""time""
""fullscreenenter"",""0"",""2028""
","
","","","","","","","","","","","","","","","","","","","","","","","","","",""
"","instruc1","2","48883","0.0-2.0","""event"",""trial"",""time""
""fullscreenenter"",""0"",""2028""
","
","
","""event"",""trial"",""time""
""fullscreenenter"",""0"",""2028""
","
","null","run_exp/static/audio/clip_1_welcome.m4a","null","331","293","19","Female","<div class='center'><p>Welcome! This is the first part of the study. It will last ~30 minutes. In part 1 and part 2 of the study, you are the head captain of a pirate ship traveling around the world to different islands. You will play a few different games throughout these two parts. Here is an overview of them:</p><br><p>Part 1 (today)</p><p>1. Instructions, practice game, and quiz</p><p>2. Pick a pirate game on 6 different islands</p><br><p>Part 2 (tomorrow)</p><p>3. Pick a pirate game and memory game</p><p>4. Where did you see this ship? </p></div>","","","","","","","","","","","","","","","","","",""
"","html-keyboard-response","3","52680","0.0-3.0","""event"",""trial"",""time""
""fullscreenenter"",""0"",""2028""
","
","
","""event"",""trial"",""time""
""fullscreenenter"",""0"",""2028""
","
","3793.7000000178814","<div class='center'><p>Welcome! This is the first part of the study. It will last ~30 minutes. In part 1 and part 2 of the study, you are the head captain of a pirate ship traveling around the world to different islands. You will play a few different games throughout these two parts. Here is an overview of them:</p><br><p>Part 1 (today)</p><p>1. Instructions, practice game, and quiz</p><p>2. Pick a pirate game on 6 different islands</p><br><p>Part 2 (tomorrow)</p><p>3. Pick a pirate game and memory game</p><p>4. Where did you see this ship? </p><p><b>[Press the space bar to continue]</b></p></div>","32","","","","","","","","","","","","","","","","","","","","","","",""
"","instruc2","4","58184","0.0-4.0","""event"",""trial"",""time""
""fullscreenenter"",""0"",""2028""
","
","
","""event"",""trial"",""time""
""fullscreenenter"",""0"",""2028""
","
","null","run_exp/static/audio/clip_2_different_places.m4a","null","","","","","<div class='center'><p>Today, you’ll visit these 6 islands on your journey. You'll be able to see these islands from your ship.</p><p><img src='run_exp/static/images/contexts/all_contexts.png' height='500'></p></div>","","","","","","","","","","","","","","","","","",""
"","html-keyboard-response","5","61781","0.0-5.0","""event"",""trial"",""time""
""fullscreenenter"",""0"",""2028""
","
","
","""event"",""trial"",""time""
""fullscreenenter"",""0"",""2028""
","
","3594.2999999821186","<div class='center'><p>Today, you’ll visit these 6 islands on your journey. You'll be able to see these islands from your ship.</p><p><img src='run_exp/static/images/contexts/all_contexts.png' height='500'></p><p><b>[Press the space bar to continue]</b></p></div>","32","","","","","","","","","","","","","","","","","","","","","","",""
"","instruc3","6","71666","0.0-6.0","""event"",""trial"",""time""
""fullscreenenter"",""0"",""2028""
","
","
","""event"",""trial"",""time""
""fullscreenenter"",""0"",""2028""
","
","null","run_exp/static/audio/clip_3_goal_of_game_1.m4a","null","","","","","<div class='center'><p> The pirates on your ship will rob other ships as they leave the island.</p> These ships have just sold their goods to the islanders, so they will be filled with lots and lots of gold.</p><p><img src='run_exp/static/images/tutorial/ship_center.png' height='400'></p></div>","","","","","","","","","","","","","","","","","",""
"","html-keyboard-response","7","72436","0.0-7.0","""event"",""trial"",""time""
""fullscreenenter"",""0"",""2028""
","
","
","""event"",""trial"",""time""
""fullscreenenter"",""0"",""2028""
","
","765.0999999940395","<div class='center'><p> The pirates on your ship will rob other ships as they leave the island.</p> These ships have just sold their goods to the islanders, so they will be filled with lots and lots of gold.</p><p><img src='run_exp/static/images/tutorial/ship_center.png' height='400'></p><p><b>[Press the space bar to continue]</b></p></div>","32","","","","","","","","","","","","","","","","","","","","","","",""
"","instruc4","8","100615","0.0-8.0","""event"",""trial"",""time""
""fullscreenenter"",""0"",""2028""
","
","
","""event"",""trial"",""time""
""fullscreenenter"",""0"",""2028""
","
","null","run_exp/static/audio/clip_4_goal_of_game_2.m4a","null","","","","","<div class='center'><p>As the head captain, you do not have to rob any ships yourself. Another pirate will be doing the robbing for you. First, you will choose a pirate to rob the next ship.</p><p><img src='run_exp/static/images/tutorial/pirates_all_crop.png' height='200'></p><p>Then, you'll see if the pirate successfully robbed the ship of their gold. If they were successful, then you'll get a stack of gold coins like this:</p><p><img src='run_exp/static/images/tutorial/reward.png' height='150'></p><p> If they were <b>not</b> successful, then you'll get no gold coins, and you'll see a big red x like this: </p><p><img src='run_exp/static/images/tutorial/reward_no.png' height='150'></p><p> How much bonus money you make is based on how many gold coins you collect.</p><div>","","","","","","","","","","","","","","","","","",""
"","html-keyboard-response","9","101263","0.0-9.0","""event"",""trial"",""time""
""fullscreenenter"",""0"",""2028""
","
","
","""event"",""trial"",""time""
""fullscreenenter"",""0"",""2028""
","
","643.5","<div class='center'><p>As the head captain, you do not have to rob any ships yourself. Another pirate will be doing the robbing for you. First, you will choose a pirate to rob the next ship.</p><p><img src='run_exp/static/images/tutorial/pirates_all_crop.png' height='200'></p><p>Then, you'll see if the pirate successfully robbed the ship of their gold. If they were successful, then you'll get a stack of gold coins like this:</p><p><img src='run_exp/static/images/tutorial/reward.png' height='150'></p><p> If they were <b>not</b> successful, then you'll get no gold coins, and you'll see a big red x like this: </p><p><img src='run_exp/static/images/tutorial/reward_no.png' height='150'></p><p> How much bonus money you make is based on how many gold coins you collect.</p<p><b>[Press the space bar to continue]</b></p></div>","32","","","","","","","","","","","","","","","","","","","","","","",""
"","instruc5","10","122235","0.0-10.0","""event"",""trial"",""time""
""fullscreenenter"",""0"",""2028""
","
","
","""event"",""trial"",""time""
""fullscreenenter"",""0"",""2028""
","
","20969.30000001192","run_exp/static/audio/clip_5_probabilistic.m4a","49","","","","","<div class='center'><p>Even the most skilled pirate can not rob EVERY ship.</p><p> Some ships will have very strong protections against pirate attacks.</p><p> Blue beard, here, is very, very good at robbing ships, but he won't be successful every time he tries to rob one.</p><p> You can press the <b>‘1’</b> key on the keyboard to choose him.</p><p> Try choosing him 10 times to see how often he succeeds at robbing a ship. </p><p><img src='run_exp/static/images/tutorial/blue.png' height='500'></p></div>","","","","","","","","","","","","","","","","","",""
"","html-keyboard-response","11","123738","0.0-11.0","""event"",""trial"",""time""
""fullscreenenter"",""0"",""2028""
","
","
","""event"",""trial"",""time""
""fullscreenenter"",""0"",""2028""
","
","null","<div class='center'><p><img src='run_exp/static/images/tutorial/blue_win.png' height='500'></p></div>","null","","","","","","","","","","","","","","","","","","","","","","",""
"","html-keyboard-response","12","125527","0.0-12.0","""event"",""trial"",""time""
""fullscreenenter"",""0"",""2028""
","
","
","""event"",""trial"",""time""
""fullscreenenter"",""0"",""2028""
","
","1788.0999999940395","<div class='center'><img src='run_exp/static/images/tutorial/blue.png' height='500'></p></div>","49","","","","","","","","","","","","","","","","","","","","","","",""
"","html-keyboard-response","13","127031","0.0-13.0","""event"",""trial"",""time""
""fullscreenenter"",""0"",""2028""
","
","
","""event"",""trial"",""time""
""fullscreenenter"",""0"",""2028""
","
","null","<div class='center'><p><img src='run_exp/static/images/tutorial/blue_win.png' height='500'></p></div>","null","","","","","","","","","","","","","","","","","","","","","","",""
"","html-keyboard-response","14","127679","0.0-14.0","""event"",""trial"",""time""
""fullscreenenter"",""0"",""2028""
","
","
","""event"",""trial"",""time""
""fullscreenenter"",""0"",""2028""
","
","646.5999999940395","<div class='center'><img src='run_exp/static/images/tutorial/blue.png' height='500'></p></div>","49","","","","","","","","","","","","","","","","","","","","","","",""
"","html-keyboard-response","15","129184","0.0-15.0","""event"",""trial"",""time""
""fullscreenenter"",""0"",""2028""
","
","
","""event"",""trial"",""time""
""fullscreenenter"",""0"",""2028""
","
","null","<div class='center'><p><img src='run_exp/static/images/tutorial/blue_win.png' height='500'></p></div>","null","","","","","","","","","","","","","","","","","","","","","","",""
"","html-keyboard-response","16","129615","0.0-16.0","""event"",""trial"",""time""
""fullscreenenter"",""0"",""2028""
","
","
","""event"",""trial"",""time""
""fullscreenenter"",""0"",""2028""
","
","428.80000001192093","<div class='center'><img src='run_exp/static/images/tutorial/blue.png' height='500'></p></div>","49","","","","","","","","","","","","","","","","","","","","","","",""
"","html-keyboard-response","17","131119","0.0-17.0","""event"",""trial"",""time""
""fullscreenenter"",""0"",""2028""
","
","
","""event"",""trial"",""time""
""fullscreenenter"",""0"",""2028""
","
","null","<div class='center'><p><img src='run_exp/static/images/tutorial/blue_no_win.png' height='500'></p></div>","null","","","","","","","","","","","","","","","","","","","","","","",""
"","html-keyboard-response","18","135405","0.0-18.0","""event"",""trial"",""time""
""fullscreenenter"",""0"",""2028""
","
","
","""event"",""trial"",""time""
""fullscreenenter"",""0"",""2028""
","
","4283.799999982119","<div class='center'><img src='run_exp/static/images/tutorial/blue.png' height='500'></p></div>","49","","","","","","","","","","","","","","","","","","","","","","",""
"","html-keyboard-response","19","136910","0.0-19.0","""event"",""trial"",""time""
""fullscreenenter"",""0"",""2028""
","
","
","""event"",""trial"",""time""
""fullscreenenter"",""0"",""2028""
","
","null","<div class='center'><p><img src='run_exp/static/images/tutorial/blue_win.png' height='500'></p></div>","null","","","","","","","","","","","","","","","","","","","","","","",""
"","html-keyboard-response","20","139971","0.0-20.0","""event"",""trial"",""time""
""fullscreenenter"",""0"",""2028""
","
","
","""event"",""trial"",""time""
""fullscreenenter"",""0"",""2028""
","
","3058.7999999821186","<div class='center'><img src='run_exp/static/images/tutorial/blue.png' height='500'></p></div>","49","","","","","","","","","","","","","","","","","","","","","","",""
"","html-keyboard-response","21","141473","0.0-21.0","""event"",""trial"",""time""
""fullscreenenter"",""0"",""2028""
","
","
","""event"",""trial"",""time""
""fullscreenenter"",""0"",""2028""
","
","null","<div class='center'><p><img src='run_exp/static/images/tutorial/blue_win.png' height='500'></p></div>","null","","","","","","","","","","","","","","","","","","","","","","",""
"","html-keyboard-response","22","145110","0.0-22.0","""event"",""trial"",""time""
""fullscreenenter"",""0"",""2028""
","
","
","""event"",""trial"",""time""
""fullscreenenter"",""0"",""2028""
","
","3635.800000011921","<div class='center'><img src='run_exp/static/images/tutorial/blue.png' height='500'></p></div>","49","","","","","","","","","","","","","","","","","","","","","","",""
"","html-keyboard-response","23","146612","0.0-23.0","""event"",""trial"",""time""
""fullscreenenter"",""0"",""2028""
","
","
","""event"",""trial"",""time""
""fullscreenenter"",""0"",""2028""
","
","null","<div class='center'><p><img src='run_exp/static/images/tutorial/blue_win.png' height='500'></p></div>","null","","","","","","","","","","","","","","","","","","","","","","",""
"","html-keyboard-response","24","147006","0.0-24.0","""event"",""trial"",""time""
""fullscreenenter"",""0"",""2028""
","
","
","""event"",""trial"",""time""
""fullscreenenter"",""0"",""2028""
","
","391.40000000596046","<div class='center'><img src='run_exp/static/images/tutorial/blue.png' height='500'></p></div>","49","","","","","","","","","","","","","","","","","","","","","","",""
"","html-keyboard-response","25","148512","0.0-25.0","""event"",""trial"",""time""
""fullscreenenter"",""0"",""2028""
","
","
","""event"",""trial"",""time""
""fullscreenenter"",""0"",""2028""
","
","null","<div class='center'><p><img src='run_exp/static/images/tutorial/blue_no_win.png' height='500'></p></div>","null","","","","","","","","","","","","","","","","","","","","","","",""
"","html-keyboard-response","26","148906","0.0-26.0","""event"",""trial"",""time""
""fullscreenenter"",""0"",""2028""
","
","
","""event"",""trial"",""time""
""fullscreenenter"",""0"",""2028""
","
","391.90000000596046","<div class='center'><img src='run_exp/static/images/tutorial/blue.png' height='500'></p></div>","49","","","","","","","","","","","","","","","","","","","","","","",""
"","html-keyboard-response","27","150409","0.0-27.0","""event"",""trial"",""time""
""fullscreenenter"",""0"",""2028""
","
","
","""event"",""trial"",""time""
""fullscreenenter"",""0"",""2028""
","
","null","<div class='center'><p><img src='run_exp/static/images/tutorial/blue_win.png' height='500'></p></div>","null","","","","","","","","","","","","","","","","","","","","","","",""
"","html-keyboard-response","28","151040","0.0-28.0","""event"",""trial"",""time""
""fullscreenenter"",""0"",""2028""
","
","
","""event"",""trial"",""time""
""fullscreenenter"",""0"",""2028""
","
","628.7000000178814","<div class='center'><img src='run_exp/static/images/tutorial/blue.png' height='500'></p></div>","49","","","","","","","","","","","","","","","","","","","","","","",""
"","html-keyboard-response","29","152541","0.0-29.0","""event"",""trial"",""time""
""fullscreenenter"",""0"",""2028""
","
","
","""event"",""trial"",""time""
""fullscreenenter"",""0"",""2028""
","
","null","<div class='center'><p><img src='run_exp/static/images/tutorial/blue_win.png' height='500'></p></div>","null","","","","","","","","","","","","","","","","","","","","","","",""
"","instruc6","30","158894","0.0-30.0","""event"",""trial"",""time""
""fullscreenenter"",""0"",""2028""
","
","
","""event"",""trial"",""time""
""fullscreenenter"",""0"",""2028""
","
","null","run_exp/static/audio/clip_6_blue_beard_outcome.m4a","null","","","","","<div class='center'><p> See, he succeeded in robbing the ships most of the time but not every time. </p></div>","","","","","","","","","","","","","","","","","",""
"","html-keyboard-response","31","161540","0.0-31.0","""event"",""trial"",""time""
""fullscreenenter"",""0"",""2028""
","
","
","""event"",""trial"",""time""
""fullscreenenter"",""0"",""2028""
","
","2645.5","<div class='center'><p> See, he succeeded in robbing the ships most of the time but not every time. </p><p><b>[Press the space bar to continue]</b></p></div>","32","","","","","","","","","","","","","","","","","","","","","","",""
"","audio-keyboard-response","32","177873","0.0-32.0","""event"",""trial"",""time""
""fullscreenenter"",""0"",""2028""
","
","
","""event"",""trial"",""time""
""fullscreenenter"",""0"",""2028""
","
","16329.799999982119","run_exp/static/audio/clip_7_pick_pirate.m4a","49","","","","","","","","","","","","","","","","","","","","","","",""
"","audio-keyboard-response","33","182867","0.0-33.0-0.0","""event"",""trial"",""time""
""fullscreenenter"",""0"",""2028""
","
","
","""event"",""trial"",""time""
""fullscreenenter"",""0"",""2028""
","
","4990","run_exp/static/audio/clip_8_chosen_pirate_win.m4a","32","","","","","","","","","","","","","","","","","","","","","","",""
"","audio-keyboard-response","34","185203","0.0-33.0-1.0","""event"",""trial"",""time""
""fullscreenenter"",""0"",""2028""
","
","
","""event"",""trial"",""time""
""fullscreenenter"",""0"",""2028""
","
","2332.699999988079","run_exp/static/audio/clip_9_pick_a_pirate_again.m4a","50","","","","","","","","","","","","","","","","","","","","","","",""
"","audio-keyboard-response","35","187578","0.0-34.0-0.0","""event"",""trial"",""time""
""fullscreenenter"",""0"",""2028""
","
","
","""event"",""trial"",""time""
""fullscreenenter"",""0"",""2028""
","
","2371.899999976158","run_exp/static/audio/clip_10_chosen_pirate_loss.m4a","32","","","","","","","","","","","","","","","","","","","","","","",""
"","instruc9","36","193282","0.0-35.0-0.0","""event"",""trial"",""time""
""fullscreenenter"",""0"",""2028""
","
","
","""event"",""trial"",""time""
""fullscreenenter"",""0"",""2028""
","
","null","run_exp/static/audio/clip_11_time_out.m4a","null","","","","","<div class='center'><p>If you don’t make your choice fast enough, you’ll have to wait a few seconds before you can make another one. </p><p><img src='run_exp/static/images/miscellaneous/hurry_up.png' height='500'></p></div>","","","","","","","","","","","","","","","","","",""
"","html-keyboard-response","37","194315","0.0-35.0-1.0","""event"",""trial"",""time""
""fullscreenenter"",""0"",""2028""
","
","
","""event"",""trial"",""time""
""fullscreenenter"",""0"",""2028""
","
","1030.0999999940395","<div class='center'><p>If you don’t make your choice fast enough, you’ll have to wait a few seconds before you can make another one. </p><p><img src='run_exp/static/images/miscellaneous/hurry_up.png' height='500'></p><p><b>[Press the space bar to continue]</b></p></div>","32","","","","","","","","","","","","","","","","","","","","","","",""
"","instruc10","38","233578","0.0-35.0-2.0","""event"",""trial"",""time""
""fullscreenenter"",""0"",""2028""
","
","
","""event"",""trial"",""time""
""fullscreenenter"",""0"",""2028""
","
","null","run_exp/static/audio/clip_12_probe.m4a","null","","","","","<div class='center'><p>Once you've chosen a pirate, you’ll be shown the ship they are robbing. You will never rob the same ship twice. Ships can be told apart from one another by the image on them. These are the goods that they sell. See, this ship has a travel mug on it. </p><p> You’ll have to remember which island you saw each ship on. You will win more gold coins and hence more bonus money if you remember correctly! To help you remember, you can imagine a story. For example, here, you could imagine a mug full of water in the desert. Or, as another example, if on the forest island, your pirate robbed a ship with an apple on it, you could imagine an apple falling from a tree in the forest. </p><p><img src='run_exp/static/images/tutorial/example_probe.png' height='500'></p></div>","","","","","","","","","","","","","","","","","",""
"","html-keyboard-response","39","234328","0.0-35.0-3.0","""event"",""trial"",""time""
""fullscreenenter"",""0"",""2028""
","
","
","""event"",""trial"",""time""
""fullscreenenter"",""0"",""2028""
","
","748.5999999940395","<div class='center'><p>Once you've chosen a pirate, you’ll be shown the ship they are robbing. You will never rob the same ship twice. Ships can be told apart from one another by the image on them. These are the goods that they sell. See, this ship has a travel mug on it. </p><p> You’ll have to remember which island you saw each ship on. You will win more gold coins and hence more bonus money if you remember correctly! To help you remember, you can imagine a story. For example, here, you could imagine a mug full of water in the desert. Or, as another example, if on the forest island, your pirate robbed a ship with an apple on it, you could imagine an apple falling from a tree in the forest. </p><p><img src='run_exp/static/images/tutorial/example_probe.png' height='500'></p><p><b>[Press the space bar to continue]</b></p></div>","32","","","","","","","","","","","","","","","","","","","","","","",""
"","instruc11","40","250923","0.0-35.0-4.0","""event"",""trial"",""time""
""fullscreenenter"",""0"",""2028""
","
","
","""event"",""trial"",""time""
""fullscreenenter"",""0"",""2028""
","
","null","run_exp/static/audio/clip_13_changepoint.m4a","null","","","","","<div class='center'><p>How successful a pirate is at robbing ships will depend on the island you’re on.</p><p> A pirate may have visited this island many times before and gained a lot of practice robbing ships there.</p><p>So, they’re more likely to be successful than a pirate who has never visited the island before.</p></div>","","","","","","","","","","","","","","","","","",""
"","html-keyboard-response","41","251917","0.0-35.0-5.0","""event"",""trial"",""time""
""fullscreenenter"",""0"",""2028""
","
","
","""event"",""trial"",""time""
""fullscreenenter"",""0"",""2028""
","
","991.0999999940395","<div class='center'><p>How successful a pirate is at robbing ships will depend on the island you’re on.</p><p> A pirate may have visited this island many times before and gained a lot of practice robbing ships there.</p><p>So, they’re more likely to be successful than a pirate who has never visited the island before.</p><p><b>[Press the space bar to continue]</b></p></div>","32","","","","","","","","","","","","","","","","","","","","","","",""
"","instruc12","42","293205","0.0-35.0-6.0","""event"",""trial"",""time""
""fullscreenenter"",""0"",""2028""
","
","
","""event"",""trial"",""time""
""fullscreenenter"",""0"",""2028""
","
","null","run_exp/static/audio/clip_14_drift.m4a","null","","","","","<div class='center'><p>How successful a pirate is at robbing ships can also change over the time spent on the island. </p><p> Ships may hear from islanders about the pirates coming and will improve their protections against the attack. This may make it harder to rob them.</p><p> Ships may also become lazy and weaken the strength of their protections. This may make it easier to rob them.</p><br><p>Things are always changing on the high seas! So, try your best to pay attention!</p><p><img src='run_exp/static/images/tutorial/contingency.png' height='500'></p></div>","","","","","","","","","","","","","","","","","",""
"","html-keyboard-response","43","293837","0.0-35.0-7.0","""event"",""trial"",""time""
""fullscreenenter"",""0"",""2028""
","
","
","""event"",""trial"",""time""
""fullscreenenter"",""0"",""2028""
","
","628.5","<div class='center'><p>How successful a pirate is at robbing ships can also change over the time spent on the island. </p><p> Ships may hear from islanders about the pirates coming and will improve their protections against the attack. This may make it harder to rob them.</p><p> Ships may also become lazy and weaken the strength of their protections. This may make it easier to rob them.</p><br><p>Things are always changing on the high seas! So, try your best to pay attention!</p><p><img src='run_exp/static/images/tutorial/contingency.png' height='500'></p><p><b>[Press the space bar to continue]</b></p></div>","32","","","","","","","","","","","","","","","","","","","","","","",""
"","instruc13","44","329235","0.0-35.0-8.0","""event"",""trial"",""time""
""fullscreenenter"",""0"",""2028""
","
","
","""event"",""trial"",""time""
""fullscreenenter"",""0"",""2028""
","
","null","run_exp/static/audio/clip_15_summary.m4a","null","","","","","<div class='center'><p>Let's go over the instructions quickly again. You have two important things to do: </p><b><p> 1. Pick the pirate who is the best at robbing ships on the current island. </p></b><b><p> 2. Remember on which island a ship was robbed.</p> </b><p>The amount of bonus money you can win depends on both.</p><p><br><p>Let’s try a practice game. The game will start by showing you the pirates. First, pick a pirate using the <b> 1, 2, 3 </b> keys on your keyboard. When you are shown a ship, try to remember which island you’re on by making up a story.</p><p>This is just a practice game, so you’re not playing for money. </p><p> Good luck! This game will be very difficult but try your best!</p></div>","","","","","","","","","","","","","","","","","",""
"","html-keyboard-response","45","332282","0.0-35.0-9.0","""event"",""trial"",""time""
""fullscreenenter"",""0"",""2028""
","
","
","""event"",""trial"",""time""
""fullscreenenter"",""0"",""2028""
","
","3044.4000000059605","<div class='center'><p>Let's go over the instructions quickly again. You have two important things to do: </p><b><p> 1. Pick the pirate who is the best at robbing ships on the current island. </p></b><b><p> 2. Remember on which island a ship was robbed.</p> </b><p>The amount of bonus money you can win depends on both.</p><p><br><p>Let’s try a practice game. The game will start by showing you the pirates. First, pick a pirate using the <b> 1, 2, 3 </b> keys on your keyboard. When you are shown a ship, try to remember which island you’re on by making up a story.</p><p>This is just a practice game, so you’re not playing for money. </p><p> Good luck! This game will be very difficult but try your best!</p><p><b>[Press the space bar to continue]</b></p></div>","32","","","","","","","","","","","","","","","","","","","","","","",""
"","do_welcome","46","336300","0.0-35.0-10.0","""event"",""trial"",""time""
""fullscreenenter"",""0"",""2028""
","
","
","""event"",""trial"",""time""
""fullscreenenter"",""0"",""2028""
","
","null","","","","","","","","null","","","","","","","","","","","","","","","","",""
"","do_trial","47","342796","0.0-35.0-11.0","""event"",""trial"",""time""
""fullscreenenter"",""0"",""2028""
","
","
","""event"",""trial"",""time""
""fullscreenenter"",""0"",""2028""
","
","1981.1000000238419","","","","","","","","49","1,0,0","","","","","","","","","","","","","","","",""
"","html-keyboard-response","48","343804","0.0-36.0-0.0","""event"",""trial"",""time""
""fullscreenenter"",""0"",""2028""
","
","
","""event"",""trial"",""time""
""fullscreenenter"",""0"",""2028""
","
","null","<p></p>","null","","","","","","","","","","","","","","","","","","","","","","",""
"","do_trial","49","348689","0.0-36.0-1.0","""event"",""trial"",""time""
""fullscreenenter"",""0"",""2028""
","
","
","""event"",""trial"",""time""
""fullscreenenter"",""0"",""2028""
","
","372.10000002384186","","","","","","","","49","1,1,0","","","","","","","","","","","","","","","",""
"","html-keyboard-response","50","349695","0.0-37.0-0.0","""event"",""trial"",""time""
""fullscreenenter"",""0"",""2028""
","
","
","""event"",""trial"",""time""
""fullscreenenter"",""0"",""2028""
","
","null","<p></p>","null","","","","","","","","","","","","","","","","","","","","","","",""
"","do_trial","51","354629","0.0-37.0-1.0","""event"",""trial"",""time""
""fullscreenenter"",""0"",""2028""
","
","
","""event"",""trial"",""time""
""fullscreenenter"",""0"",""2028""
","
","424.80000001192093","","","","","","","","50","1,0,1","","","","","","","","","","","","","","","",""
"","html-keyboard-response","52","355631","0.0-38.0-0.0","""event"",""trial"",""time""
""fullscreenenter"",""0"",""2028""
","
","
","""event"",""trial"",""time""
""fullscreenenter"",""0"",""2028""
","
","null","<p></p>","null","","","","","","","","","","","","","","","","","","","","","","",""
"","do_trial","53","360776","0.0-38.0-1.0","""event"",""trial"",""time""
""fullscreenenter"",""0"",""2028""
","
","
","""event"",""trial"",""time""
""fullscreenenter"",""0"",""2028""
","
","632.5999999940395","","","","","","","","51","0,1,0","","","","","","","","","","","","","","","",""
"","html-keyboard-response","54","361781","0.0-39.0-0.0","""event"",""trial"",""time""
""fullscreenenter"",""0"",""2028""
","
","
","""event"",""trial"",""time""
""fullscreenenter"",""0"",""2028""
","
","null","<p></p>","null","","","","","","","","","","","","","","","","","","","","","","",""
"","do_trial","55","366815","0.0-39.0-1.0","""event"",""trial"",""time""
""fullscreenenter"",""0"",""2028""
","
","
","""event"",""trial"",""time""
""fullscreenenter"",""0"",""2028""
","
","523.3999999761581","","","","","","","","51","1,0,0","","","","","","","","","","","","","","","",""
"","do_bye","56","368328","0.0-40.0-0.0","""event"",""trial"",""time""
""fullscreenenter"",""0"",""2028""
","
","
","""event"",""trial"",""time""
""fullscreenenter"",""0"",""2028""
","
","null","","","","","","","","null","","","","","","","","","","","","","","","","",""
"","do_travel","57","377338","0.0-40.0-1.0","""event"",""trial"",""time""
""fullscreenenter"",""0"",""2028""
","
","
","""event"",""trial"",""time""
""fullscreenenter"",""0"",""2028""
","
","null","","","","","","","","null","","","","","","","","","","","","","","","","",""
"","do_welcome","58","381351","0.0-40.0-2.0","""event"",""trial"",""time""
""fullscreenenter"",""0"",""2028""
","
","
","""event"",""trial"",""time""
""fullscreenenter"",""0"",""2028""
","
","null","","","","","","","","null","","","","","","","","","","","","","","","","",""
"","do_trial","59","386696","0.0-40.0-3.0","""event"",""trial"",""time""
""fullscreenenter"",""0"",""2028""
","
","
","""event"",""trial"",""time""
""fullscreenenter"",""0"",""2028""
","
","831.0999999940395","","","","","","","","49","1,0,0","","","","","","","","","","","","","","","",""
"","html-keyboard-response","60","387700","0.0-41.0-0.0","""event"",""trial"",""time""
""fullscreenenter"",""0"",""2028""
","
","
","""event"",""trial"",""time""
""fullscreenenter"",""0"",""2028""
","
","null","<p></p>","null","","","","","","","","","","","","","","","","","","","","","","",""
"","do_trial","61","392759","0.0-41.0-1.0","""event"",""trial"",""time""
""fullscreenenter"",""0"",""2028""
","
","
","""event"",""trial"",""time""
""fullscreenenter"",""0"",""2028""
","
","545.0999999940395","","","","","","","","49","1,0,1","","","","","","","","","","","","","","","",""
"","html-keyboard-response","62","393763","0.0-42.0-0.0","""event"",""trial"",""time""
""fullscreenenter"",""0"",""2028""
","
","
","""event"",""trial"",""time""
""fullscreenenter"",""0"",""2028""
","
","null","<p></p>","null","","","","","","","","","","","","","","","","","","","","","","",""
"","do_trial","63","398839","0.0-42.0-1.0","""event"",""trial"",""time""
""fullscreenenter"",""0"",""2028""
","
","
","""event"",""trial"",""time""
""fullscreenenter"",""0"",""2028""
","
","563","","","","","","","","49","1,1,0","","","","","","","","","","","","","","","",""
"","html-keyboard-response","64","399843","0.0-43.0-0.0","""event"",""trial"",""time""
""fullscreenenter"",""0"",""2028""
","
","
","""event"",""trial"",""time""
""fullscreenenter"",""0"",""2028""
","
","null","<p></p>","null","","","","","","","","","","","","","","","","","","","","","","",""
"","do_trial","65","404759","0.0-43.0-1.0","""event"",""trial"",""time""
""fullscreenenter"",""0"",""2028""
","
","
","""event"",""trial"",""time""
""fullscreenenter"",""0"",""2028""
","
","405.2000000178814","","","","","","","","49","0,0,1","","","","","","","","","","","","","","","",""
"","html-keyboard-response","66","405763","0.0-44.0-0.0","""event"",""trial"",""time""
""fullscreenenter"",""0"",""2028""
","
","
","""event"",""trial"",""time""
""fullscreenenter"",""0"",""2028""
","
","null","<p></p>","null","","","","","","","","","","","","","","","","","","","","","","",""
"","do_trial","67","410634","0.0-44.0-1.0","""event"",""trial"",""time""
""fullscreenenter"",""0"",""2028""
","
","
","""event"",""trial"",""time""
""fullscreenenter"",""0"",""2028""
","
","361.60000002384186","","","","","","","","50","1,0,1","","","","","","","","","","","","","","","",""
"","html-keyboard-response","68","413467","0.0-45.0-0.0","""event"",""trial"",""time""
""fullscreenenter"",""0"",""2028""
","
","
","""event"",""trial"",""time""
""fullscreenenter"",""0"",""2028""
","
","2830.5","<div class='center'><p><img src='run_exp/static/images/tutorial/prac_best_pirate.png'  height='500'></p></div>","49","","","","","","","","","","","","","","","","","","","","","","",""
"","html-keyboard-response","69","415381","0.0-46.0-0.0","""event"",""trial"",""time""
""fullscreenenter"",""0"",""2028""
","
","
","""event"",""trial"",""time""
""fullscreenenter"",""0"",""2028""
","
","1912","<div class='center'><p>That's correct! Red beard was the best.</p><p><b>[Press the space bar to continue]</b></p></div>","32","","","","","","","","","","","","","","","","","","","","","","",""
"","html-keyboard-response","70","419345","0.0-46.0-1.0","""event"",""trial"",""time""
""fullscreenenter"",""0"",""2028""
","
","
","""event"",""trial"",""time""
""fullscreenenter"",""0"",""2028""
","
","3962.7999999821186","<div class='center'><p><img src='run_exp/static/images/tutorial/prac_source.png'  height='500'></p></div>","50","","","","","","","","","","","","","","","","","","","","","","",""
"","html-keyboard-response","71","420889","0.0-47.0-0.0","""event"",""trial"",""time""
""fullscreenenter"",""0"",""2028""
","
","
","""event"",""trial"",""time""
""fullscreenenter"",""0"",""2028""
","
","1542.5999999940395","<div class='center'><p>That's correct! You saw this ship on the cavern island.</p><p><b>[Press the space bar to continue]</b></p></div>","32","","","","","","","","","","","","","","","","","","","","","","",""
"","quiz_beginning","72","432686","0.0-47.0-1.0","""event"",""trial"",""time""
""fullscreenenter"",""0"",""2028""
","
","
","""event"",""trial"",""time""
""fullscreenenter"",""0"",""2028""
","
","null","run_exp/static/audio/clip_16_quiz_intro.m4a","null","","","","","<div class='center'><p>Good job on the practice game! Now, you will be asked some true or false questions to make sure you really understand the rules of the game.</p><p> Press <b>'1'</b> on the keyboard for true and press <b>'2'</b> for false.</p></div>","","","","","","","","","","","","","","","","","",""
"","audio-keyboard-response","73","439280","0.0-47.0-2.0","""event"",""trial"",""time""
""fullscreenenter"",""0"",""2028""
","
","
","""event"",""trial"",""time""
""fullscreenenter"",""0"",""2028""
","
","6590.799999982119","run_exp/static/audio/clip_17_q1.m4a","49","","","","","","","","","","","","","","","","","","","","","","",""
"","correct","74","441858","0.0-48.0-0.0","""event"",""trial"",""time""
""fullscreenenter"",""0"",""2028""
","
","
","""event"",""trial"",""time""
""fullscreenenter"",""0"",""2028""
","
","null","run_exp/static/audio/clip_18_correct.m4a","null","","","","","<div class='center'><p>That's correct!</p></div>","","","","","","","","","","","","","","","","","",""
"","html-keyboard-response","75","443182","0.0-48.0-1.0","""event"",""trial"",""time""
""fullscreenenter"",""0"",""2028""
","
","
","""event"",""trial"",""time""
""fullscreenenter"",""0"",""2028""
","
","1322.7999999821186","<div class='center'><p>That's correct!</p><p><b>[Press the space bar to continue]</b></p></div>","32","","","","","","","","","","","","","","","","","","","","","","",""
"","audio-keyboard-response","76","449205","0.0-48.0-2.0","""event"",""trial"",""time""
""fullscreenenter"",""0"",""2028""
","
","
","""event"",""trial"",""time""
""fullscreenenter"",""0"",""2028""
","
","6021.4000000059605","run_exp/static/audio/clip_20_q2.m4a","50","","","","","","","","","","","","","","","","","","","","","","",""
"","correct","77","451778","0.0-49.0-0.0","""event"",""trial"",""time""
""fullscreenenter"",""0"",""2028""
","
","
","""event"",""trial"",""time""
""fullscreenenter"",""0"",""2028""
","
","null","run_exp/static/audio/clip_18_correct.m4a","null","","","","","<div class='center'><p>That's correct!</p></div>","","","","","","","","","","","","","","","","","",""
"","html-keyboard-response","78","452254","0.0-49.0-1.0","""event"",""trial"",""time""
""fullscreenenter"",""0"",""2028""
","
","
","""event"",""trial"",""time""
""fullscreenenter"",""0"",""2028""
","
","475.5","<div class='center'><p>That's correct!</p><p><b>[Press the space bar to continue]</b></p></div>","32","","","","","","","","","","","","","","","","","","","","","","",""
"","audio-keyboard-response","79","457301","0.0-49.0-2.0","""event"",""trial"",""time""
""fullscreenenter"",""0"",""2028""
","
","
","""event"",""trial"",""time""
""fullscreenenter"",""0"",""2028""
","
","5044.800000011921","run_exp/static/audio/clip_22_q3.m4a","50","","","","","","","","","","","","","","","","","","","","","","",""
"","correct","80","459884","0.0-50.0-0.0","""event"",""trial"",""time""
""fullscreenenter"",""0"",""2028""
","
","
","""event"",""trial"",""time""
""fullscreenenter"",""0"",""2028""
","
","null","run_exp/static/audio/clip_18_correct.m4a","null","","","","","<div class='center'><p>That's correct!</p></div>","","","","","","","","","","","","","","","","","",""
"","html-keyboard-response","81","460233","0.0-50.0-1.0","""event"",""trial"",""time""
""fullscreenenter"",""0"",""2028""
","
","
","""event"",""trial"",""time""
""fullscreenenter"",""0"",""2028""
","
","347.89999997615814","<div class='center'><p>That's correct!</p><p><b>[Press the space bar to continue]</b></p></div>","32","","","","","","","","","","","","","","","","","","","","","","",""
"","audio-keyboard-response","82","466303","0.0-50.0-2.0","""event"",""trial"",""time""
""fullscreenenter"",""0"",""2028""
","
","
","""event"",""trial"",""time""
""fullscreenenter"",""0"",""2028""
","
","6068.300000011921","run_exp/static/audio/clip_24_q4.m4a","50","","","","","","","","","","","","","","","","","","","","","","",""
"","q4_err","83","476595","0.0-51.0-0.0","""event"",""trial"",""time""
""fullscreenenter"",""0"",""2028""
","
","
","""event"",""trial"",""time""
""fullscreenenter"",""0"",""2028""
","
","null","run_exp/static/audio/clip_25_wrong_q4.m4a","null","","","","","<div class='center'><p>That’s incorrect. You should remember the island where a pirate robbed a ship. To help you remember, you can make up a story associating the object on the ship with the island.</p></div>","","","","","","","","","","","","","","","","","",""
"","html-keyboard-response","84","477098","0.0-51.0-1.0","""event"",""trial"",""time""
""fullscreenenter"",""0"",""2028""
","
","
","""event"",""trial"",""time""
""fullscreenenter"",""0"",""2028""
","
","491.69999998807907","<div class='center'><p>That’s incorrect. You should remember the island where a pirate robbed a ship. To help you remember, you can make up a story associating the object on the ship with the island.</p><p><b>[Press the space bar to continue]</b></p></div>","32","","","","","","","","","","","","","","","","","","","","","","",""
"","q_all_err","85","483499","0.0-52.0-0.0","""event"",""trial"",""time""
""fullscreenenter"",""0"",""2028""
","
","
","""event"",""trial"",""time""
""fullscreenenter"",""0"",""2028""
","
","null","run_exp/static/audio/clip_26_quiz_redo.m4a","null","","","","","<div class='center'><p>Oops, you missed some questions. Now that you’ve heard the correct answers. Try the quiz again! </p></div>","","","","","","","","","","","","","","","","","",""
"","html-keyboard-response","86","484230","0.0-52.0-1.0","""event"",""trial"",""time""
""fullscreenenter"",""0"",""2028""
","
","
","""event"",""trial"",""time""
""fullscreenenter"",""0"",""2028""
","
","729.8000000119209","<div class='center'><p>Oops, you missed some questions. Now that you’ve heard the correct answers. Try the quiz again! </p><p><b>[Press the space bar to continue]</b></p></div>","32","","","","","","","","","","","","","","","","","","","","","","",""
"","audio-keyboard-response","87","486146","0.0-52.0-2.0","""event"",""trial"",""time""
""fullscreenenter"",""0"",""2028""
","
","
","""event"",""trial"",""time""
""fullscreenenter"",""0"",""2028""
","
","1913.9000000059605","run_exp/static/audio/clip_17_q1.m4a","49","","","","","","","","","","","","","","","","","","","","","","",""
"","correct","88","488726","0.0-53.0-0.0","""event"",""trial"",""time""
""fullscreenenter"",""0"",""2028""
","
","
","""event"",""trial"",""time""
""fullscreenenter"",""0"",""2028""
","
","null","run_exp/static/audio/clip_18_correct.m4a","null","","","","","<div class='center'><p>That's correct!</p></div>","","","","","","","","","","","","","","","","","",""
"","html-keyboard-response","89","489144","0.0-53.0-1.0","""event"",""trial"",""time""
""fullscreenenter"",""0"",""2028""
","
","
","""event"",""trial"",""time""
""fullscreenenter"",""0"",""2028""
","
","415.5","<div class='center'><p>That's correct!</p><p><b>[Press the space bar to continue]</b></p></div>","32","","","","","","","","","","","","","","","","","","","","","","",""
"","audio-keyboard-response","90","491965","0.0-53.0-2.0","""event"",""trial"",""time""
""fullscreenenter"",""0"",""2028""
","
","
","""event"",""trial"",""time""
""fullscreenenter"",""0"",""2028""
","
","2818.5999999940395","run_exp/static/audio/clip_20_q2.m4a","50","","","","","","","","","","","","","","","","","","","","","","",""
"","correct","91","494572","0.0-54.0-0.0","""event"",""trial"",""time""
""fullscreenenter"",""0"",""2028""
","
","
","""event"",""trial"",""time""
""fullscreenenter"",""0"",""2028""
","
","null","run_exp/static/audio/clip_18_correct.m4a","null","","","","","<div class='center'><p>That's correct!</p></div>","","","","","","","","","","","","","","","","","",""
"","html-keyboard-response","92","494969","0.0-54.0-1.0","""event"",""trial"",""time""
""fullscreenenter"",""0"",""2028""
","
","
","""event"",""trial"",""time""
""fullscreenenter"",""0"",""2028""
","
","395.69999998807907","<div class='center'><p>That's correct!</p><p><b>[Press the space bar to continue]</b></p></div>","32","","","","","","","","","","","","","","","","","","","","","","",""
"","audio-keyboard-response","93","497036","0.0-54.0-2.0","""event"",""trial"",""time""
""fullscreenenter"",""0"",""2028""
","
","
","""event"",""trial"",""time""
""fullscreenenter"",""0"",""2028""
","
","2065.0999999940395","run_exp/static/audio/clip_22_q3.m4a","50","","","","","","","","","","","","","","","","","","","","","","",""
"","correct","94","499605","0.0-55.0-0.0","""event"",""trial"",""time""
""fullscreenenter"",""0"",""2028""
","
","
","""event"",""trial"",""time""
""fullscreenenter"",""0"",""2028""
","
","null","run_exp/static/audio/clip_18_correct.m4a","null","","","","","<div class='center'><p>That's correct!</p></div>","","","","","","","","","","","","","","","","","",""
"","html-keyboard-response","95","500115","0.0-55.0-1.0","""event"",""trial"",""time""
""fullscreenenter"",""0"",""2028""
","
","
","""event"",""trial"",""time""
""fullscreenenter"",""0"",""2028""
","
","508.60000002384186","<div class='center'><p>That's correct!</p><p><b>[Press the space bar to continue]</b></p></div>","32","","","","","","","","","","","","","","","","","","","","","","",""
"","audio-keyboard-response","96","502698","0.0-55.0-2.0","""event"",""trial"",""time""
""fullscreenenter"",""0"",""2028""
","
","
","""event"",""trial"",""time""
""fullscreenenter"",""0"",""2028""
","
","2581.699999988079","run_exp/static/audio/clip_24_q4.m4a","49","","","","","","","","","","","","","","","","","","","","","","",""
"","correct","97","505344","0.0-56.0-0.0","""event"",""trial"",""time""
""fullscreenenter"",""0"",""2028""
","
","
","""event"",""trial"",""time""
""fullscreenenter"",""0"",""2028""
","
","null","run_exp/static/audio/clip_18_correct.m4a","null","","","","","<div class='center'><p>That's correct!</p></div>","","","","","","","","","","","","","","","","","",""
"","html-keyboard-response","98","505963","0.0-56.0-1.0","""event"",""trial"",""time""
""fullscreenenter"",""0"",""2028""
","
","
","""event"",""trial"",""time""
""fullscreenenter"",""0"",""2028""
","
","618","<div class='center'><p>That's correct!</p><p><b>[Press the space bar to continue]</b></p></div>","32","","","","","","","","","","","","","","","","","","","","","","",""
"","q_all_corr","99","514645","0.0-57.0-0.0","""event"",""trial"",""time""
""fullscreenenter"",""0"",""2028""
","
","
","""event"",""trial"",""time""
""fullscreenenter"",""0"",""2028""
","
","null","run_exp/static/audio/clip_27_quiz_all_correct.m4a","null","","","","","<div class='center'><p>Good job! You’re now ready to move on to the real game! Remember this game will be difficult but don't get discouraged and try your best!</p></div>","","","","","","","","","","","","","","","","","",""
"","html-keyboard-response","100","515171","0.0-57.0-1.0","""event"",""trial"",""time""
""fullscreenenter"",""0"",""2028""
","
","
","""event"",""trial"",""time""
""fullscreenenter"",""0"",""2028""
","
","523.3000000119209","<div class='center'><p>Good job! You’re now ready to move on to the real game! Remember this game will be difficult but don't get discouraged and try your best!</p><p><b>[Press the space bar to continue]</b></p></div>","32","","","","","","","","","","","","","","","","","","","","","","",""
"","do_welcome","101","519195","0.0-58.0-0.0","""event"",""trial"",""time""
""fullscreenenter"",""0"",""2028""
","
","
","""event"",""trial"",""time""
""fullscreenenter"",""0"",""2028""
","
","null","","","","","","","","null","","","","","","","","","","","","","","","","",""
"","do_trial","102","524807","0.0-59.0-0.0","""event"",""trial"",""time""
""fullscreenenter"",""0"",""2028""
","
","
","""event"",""trial"",""time""
""fullscreenenter"",""0"",""2028""
","
","1032.0999999940395","","","","","","","","49","0,0,0","0","city","0","probe-153","0.6","0.3","0.1","0","","","","","","","",""
"","html-keyboard-response","103","525814","0.0-59.0-1.0","""event"",""trial"",""time""
""fullscreenenter"",""0"",""2028""
","
","
","""event"",""trial"",""time""
""fullscreenenter"",""0"",""2028""
","
","null","<p></p>","null","","","","","","","","","","","","","","","","","","","","","","",""
"","do_trial","104","530907","0.0-60.0-0.0","""event"",""trial"",""time""
""fullscreenenter"",""0"",""2028""
","
","
","""event"",""trial"",""time""
""fullscreenenter"",""0"",""2028""
","
","525.0999999940395","","","","","","","","50","1,0,0","0","city","1","probe-104","0.5600070562089647","0.2683987911404773","0.056579291729201356","0","","","","","","","",""
"","html-keyboard-response","105","531912","0.0-60.0-1.0","""event"",""trial"",""time""
""fullscreenenter"",""0"",""2028""
","
","
","""event"",""trial"",""time""
""fullscreenenter"",""0"",""2028""
","
","null","<p></p>","null","","","","","","","","","","","","","","","","","","","","","","",""
"","do_trial","106","536796","0.0-61.0-0.0","""event"",""trial"",""time""
""fullscreenenter"",""0"",""2028""
","
","
","""event"",""trial"",""time""
""fullscreenenter"",""0"",""2028""
","
","319.2999999821186","","","","","","","","51","1,1,0","0","city","2","probe-180","0.5699437059826822","0.2554338195221165","0.07675497944323045","0","","","","","","","",""
"","html-keyboard-response","107","537803","0.0-61.0-1.0","""event"",""trial"",""time""
""fullscreenenter"",""0"",""2028""
","
","
","""event"",""trial"",""time""
""fullscreenenter"",""0"",""2028""
","
","null","<p></p>","null","","","","","","","","","","","","","","","","","","","","","","",""
"","do_trial","108","542745","0.0-62.0-0.0","""event"",""trial"",""time""
""fullscreenenter"",""0"",""2028""
","
","
","""event"",""trial"",""time""
""fullscreenenter"",""0"",""2028""
","
","375.40000000596046","","","","","","","","50","0,0,0","0","city","3","probe-161","0.6549151652263321","0.3125743055579574","0.05886389643878298","0","","","","","","","",""
"","html-keyboard-response","109","543754","0.0-62.0-1.0","""event"",""trial"",""time""
""fullscreenenter"",""0"",""2028""
","
","
","""event"",""trial"",""time""
""fullscreenenter"",""0"",""2028""
","
","null","<p></p>","null","","","","","","","","","","","","","","","","","","","","","","",""
"","do_trial","110","548614","0.0-63.0-0.0","""event"",""trial"",""time""
""fullscreenenter"",""0"",""2028""
","
","
","""event"",""trial"",""time""
""fullscreenenter"",""0"",""2028""
","
","306.10000002384186","","","","","","","","49","0,0,0","0","city","4","probe-195","0.7144601260181761","0.1938862065090181","0.07110762334710606","0","","","","","","","",""
"","html-keyboard-response","111","549617","0.0-63.0-1.0","""event"",""trial"",""time""
""fullscreenenter"",""0"",""2028""
","
","
","""event"",""trial"",""time""
""fullscreenenter"",""0"",""2028""
","
","null","<p></p>","null","","","","","","","","","","","","","","","","","","","","","","",""
"","do_trial","112","554776","0.0-64.0-0.0","""event"",""trial"",""time""
""fullscreenenter"",""0"",""2028""
","
","
","""event"",""trial"",""time""
""fullscreenenter"",""0"",""2028""
","
","591.1999999880791","","","","","","","","51","1,0,0","0","city","5","probe-35","0.4916076286634289","0.2606224705538891","0.1374055719589786","0","","","","","","","",""
"","html-keyboard-response","113","555782","0.0-64.0-1.0","""event"",""trial"",""time""
""fullscreenenter"",""0"",""2028""
","
","
","""event"",""trial"",""time""
""fullscreenenter"",""0"",""2028""
","
","null","<p></p>","null","","","","","","","","","","","","","","","","","","","","","","",""
"","do_trial","114","560971","0.0-65.0-0.0","""event"",""trial"",""time""
""fullscreenenter"",""0"",""2028""
","
","
","""event"",""trial"",""time""
""fullscreenenter"",""0"",""2028""
","
","625.6999999880791","","","","","","","","49","0,0,0","0","city","6","probe-72","0.3623202003231896","0.25668812593191126","0.16469189720436286","0","","","","","","","",""
"","html-keyboard-response","115","561975","0.0-65.0-1.0","""event"",""trial"",""time""
""fullscreenenter"",""0"",""2028""
","
","
","""event"",""trial"",""time""
""fullscreenenter"",""0"",""2028""
","
","null","<p></p>","null","","","","","","","","","","","","","","","","","","","","","","",""
"","do_trial","116","567242","0.0-66.0-0.0","""event"",""trial"",""time""
""fullscreenenter"",""0"",""2028""
","
","
","""event"",""trial"",""time""
""fullscreenenter"",""0"",""2028""
","
","698.4000000059605","","","","","","","","49","1,0,0","0","city","7","probe-197","0.5207696513455092","0.3782123484431826","0.0821106568386414","1","","","","","","","",""
"","html-keyboard-response","117","568244","0.0-66.0-1.0","""event"",""trial"",""time""
""fullscreenenter"",""0"",""2028""
","
","
","""event"",""trial"",""time""
""fullscreenenter"",""0"",""2028""
","
","null","<p></p>","null","","","","","","","","","","","","","","","","","","","","","","",""
"","do_trial","118","573412","0.0-67.0-0.0","""event"",""trial"",""time""
""fullscreenenter"",""0"",""2028""
","
","
","""event"",""trial"",""time""
""fullscreenenter"",""0"",""2028""
","
","601.3000000119209","","","","","","","","49","0,0,0","0","city","8","probe-80","0.616466611830095","0.3299963200354859","0.11140799386289749","0","","","","","","","",""
"","html-keyboard-response","119","574418","0.0-67.0-1.0","""event"",""trial"",""time""
""fullscreenenter"",""0"",""2028""
","
","
","""event"",""trial"",""time""
""fullscreenenter"",""0"",""2028""
","
","null","<p></p>","null","","","","","","","","","","","","","","","","","","","","","","",""
"","do_trial","120","579291","0.0-68.0-0.0","""event"",""trial"",""time""
""fullscreenenter"",""0"",""2028""
","
","
","""event"",""trial"",""time""
""fullscreenenter"",""0"",""2028""
","
","304.40000000596046","","","","","","","","50","0,1,0","0","city","9","probe-183","0.6386389881204823","0.2754711859449989","0.246011256799343","1","","","","","","","",""
"","html-keyboard-response","121","580296","0.0-68.0-1.0","""event"",""trial"",""time""
""fullscreenenter"",""0"",""2028""
","
","
","""event"",""trial"",""time""
""fullscreenenter"",""0"",""2028""
","
","null","<p></p>","null","","","","","","","","","","","","","","","","","","","","","","",""
"","do_trial","122","585456","0.0-69.0-0.0","""event"",""trial"",""time""
""fullscreenenter"",""0"",""2028""
","
","
","""event"",""trial"",""time""
""fullscreenenter"",""0"",""2028""
","
","594","","","","","","","","50","1,0,1","0","city","10","probe-27","0.6153029104271497","0.2738003270612024","0.2659472358993298","0","","","","","","","",""
"","html-keyboard-response","123","586462","0.0-69.0-1.0","""event"",""trial"",""time""
""fullscreenenter"",""0"",""2028""
","
","
","""event"",""trial"",""time""
""fullscreenenter"",""0"",""2028""
","
","null","<p></p>","null","","","","","","","","","","","","","","","","","","","","","","",""
"","do_trial","124","591429","0.0-70.0-0.0","""event"",""trial"",""time""
""fullscreenenter"",""0"",""2028""
","
","
","""event"",""trial"",""time""
""fullscreenenter"",""0"",""2028""
","
","403.69999998807907","","","","","","","","51","0,0,0","0","city","11","probe-37","0.54268088849187","0.2738970649559603","0.13810412629233682","0","","","","","","","",""
"","html-keyboard-response","125","592435","0.0-70.0-1.0","""event"",""trial"",""time""
""fullscreenenter"",""0"",""2028""
","
","
","""event"",""trial"",""time""
""fullscreenenter"",""0"",""2028""
","
","null","<p></p>","null","","","","","","","","","","","","","","","","","","","","","","",""
"","do_trial","126","597406","0.0-71.0-0.0","""event"",""trial"",""time""
""fullscreenenter"",""0"",""2028""
","
","
","""event"",""trial"",""time""
""fullscreenenter"",""0"",""2028""
","
","408.5","","","","","","","","51","0,0,1","0","city","12","probe-126","0.4223366647831911","0.26356739176093763","0.28826265351796454","1","","","","","","","",""
"","html-keyboard-response","127","598412","0.0-71.0-1.0","""event"",""trial"",""time""
""fullscreenenter"",""0"",""2028""
","
","
","""event"",""trial"",""time""
""fullscreenenter"",""0"",""2028""
","
","null","<p></p>","null","","","","","","","","","","","","","","","","","","","","","","",""
"","do_trial","128","603542","0.0-72.0-0.0","""event"",""trial"",""time""
""fullscreenenter"",""0"",""2028""
","
","
","""event"",""trial"",""time""
""fullscreenenter"",""0"",""2028""
","
","567.0999999940395","","","","","","","","51","1,0,0","0","city","13","probe-178","0.40813127044651437","0.24357263147759603","0.29907867510474184","0","","","","","","","",""
"","html-keyboard-response","129","604550","0.0-72.0-1.0","""event"",""trial"",""time""
""fullscreenenter"",""0"",""2028""
","
","
","""event"",""trial"",""time""
""fullscreenenter"",""0"",""2028""
","
","null","<p></p>","null","","","","","","","","","","","","","","","","","","","","","","",""
"","do_trial","130","609491","0.0-73.0-0.0","""event"",""trial"",""time""
""fullscreenenter"",""0"",""2028""
","
","
","""event"",""trial"",""time""
""fullscreenenter"",""0"",""2028""
","
","374.90000000596046","","","","","","","","49","1,1,1","0","city","14","probe-90","0.43539590918609433","0.27426143924137264","0.18307560884009963","1","","","","","","","",""
"","html-keyboard-response","131","610495","0.0-73.0-1.0","""event"",""trial"",""time""
""fullscreenenter"",""0"",""2028""
","
","
","""event"",""trial"",""time""
""fullscreenenter"",""0"",""2028""
","
","null","<p></p>","null","","","","","","","","","","","","","","","","","","","","","","",""
"","do_trial","132","615502","0.0-74.0-0.0","""event"",""trial"",""time""
""fullscreenenter"",""0"",""2028""
","
","
","""event"",""trial"",""time""
""fullscreenenter"",""0"",""2028""
","
","436.5","","","","","","","","50","0,1,1","0","city","15","probe-223","0.4023599614192952","0.36129664329159517","0.05278785511936313","1","","","","","","","",""
"","html-keyboard-response","133","616509","0.0-74.0-1.0","""event"",""trial"",""time""
""fullscreenenter"",""0"",""2028""
","
","
","""event"",""trial"",""time""
""fullscreenenter"",""0"",""2028""
","
","null","<p></p>","null","","","","","","","","","","","","","","","","","","","","","","",""
"","do_trial","134","621400","0.0-75.0-0.0","""event"",""trial"",""time""
""fullscreenenter"",""0"",""2028""
","
","
","""event"",""trial"",""time""
""fullscreenenter"",""0"",""2028""
","
","316.10000002384186","","","","","","","","49","1,0,0","0","city","16","probe-03","0.5446146861541469","0.24250711537043088","0.06325284165208774","1","","","","","","","",""
"","html-keyboard-response","135","622402","0.0-75.0-1.0","""event"",""trial"",""time""
""fullscreenenter"",""0"",""2028""
","
","
","""event"",""trial"",""time""
""fullscreenenter"",""0"",""2028""
","
","null","<p></p>","null","","","","","","","","","","","","","","","","","","","","","","",""
"","do_trial","136","627405","0.0-76.0-0.0","""event"",""trial"",""time""
""fullscreenenter"",""0"",""2028""
","
","
","""event"",""trial"",""time""
""fullscreenenter"",""0"",""2028""
","
","432","","","","","","","","51","1,1,0","0","city","17","probe-42","0.5740030479604574","0.23937136095941486","0.2075694424766452","0","","","","","","","",""
"","html-keyboard-response","137","628413","0.0-76.0-1.0","""event"",""trial"",""time""
""fullscreenenter"",""0"",""2028""
","
","
","""event"",""trial"",""time""
""fullscreenenter"",""0"",""2028""
","
","null","<p></p>","null","","","","","","","","","","","","","","","","","","","","","","",""
"","do_trial","138","633337","0.0-77.0-0.0","""event"",""trial"",""time""
""fullscreenenter"",""0"",""2028""
","
","
","""event"",""trial"",""time""
""fullscreenenter"",""0"",""2028""
","
","358.90000000596046","","","","","","","","50","1,1,0","0","city","18","probe-93","0.6767405599110069","0.17085286344544867","0.18676936381683903","1","","","","","","","",""
"","html-keyboard-response","139","634344","0.0-77.0-1.0","""event"",""trial"",""time""
""fullscreenenter"",""0"",""2028""
","
","
","""event"",""trial"",""time""
""fullscreenenter"",""0"",""2028""
","
","null","<p></p>","null","","","","","","","","","","","","","","","","","","","","","","",""
"","do_trial","140","639384","0.0-78.0-0.0","""event"",""trial"",""time""
""fullscreenenter"",""0"",""2028""
","
","
","""event"",""trial"",""time""
""fullscreenenter"",""0"",""2028""
","
","476","","","","","","","","50","1,0,0","0","city","19","probe-39","0.577869853570635","0.21102924108927262","0.15428082080155636","0","","","","","","","",""
"","html-keyboard-response","141","640391","0.0-78.0-1.0","""event"",""trial"",""time""
""fullscreenenter"",""0"",""2028""
","
","
","""event"",""trial"",""time""
""fullscreenenter"",""0"",""2028""
","
","null","<p></p>","null","","","","","","","","","","","","","","","","","","","","","","",""
"","do_trial","142","645359","0.0-79.0-0.0","""event"",""trial"",""time""
""fullscreenenter"",""0"",""2028""
","
","
","""event"",""trial"",""time""
""fullscreenenter"",""0"",""2028""
","
","405.60000002384186","","","","","","","","49","1,1,0","0","city","20","probe-29","0.5575008385927521","0.29299055461441303","0.19372953961819744","1","","","","","","","",""
"","html-keyboard-response","143","646367","0.0-79.0-1.0","""event"",""trial"",""time""
""fullscreenenter"",""0"",""2028""
","
","
","""event"",""trial"",""time""
""fullscreenenter"",""0"",""2028""
","
","null","<p></p>","null","","","","","","","","","","","","","","","","","","","","","","",""
"","do_trial","144","651454","0.0-80.0-0.0","""event"",""trial"",""time""
""fullscreenenter"",""0"",""2028""
","
","
","""event"",""trial"",""time""
""fullscreenenter"",""0"",""2028""
","
","522.8000000119209","","","","","","","","51","0,0,0","0","city","21","probe-125","0.577419603558991","0.2893633284834536","0.19068579388003443","0","","","","","","","",""
"","html-keyboard-response","145","652459","0.0-80.0-1.0","""event"",""trial"",""time""
""fullscreenenter"",""0"",""2028""
","
","
","""event"",""trial"",""time""
""fullscreenenter"",""0"",""2028""
","
","null","<p></p>","null","","","","","","","","","","","","","","","","","","","","","","",""
"","do_trial","146","657401","0.0-81.0-0.0","""event"",""trial"",""time""
""fullscreenenter"",""0"",""2028""
","
","
","""event"",""trial"",""time""
""fullscreenenter"",""0"",""2028""
","
","377.7999999821186","","","","","","","","49","0,0,0","0","city","22","probe-110","0.5016385269867394","0.205141737703579","0.28181834344723944","0","","","","","","","",""
"","html-keyboard-response","147","658406","0.0-81.0-1.0","""event"",""trial"",""time""
""fullscreenenter"",""0"",""2028""
","
","
","""event"",""trial"",""time""
""fullscreenenter"",""0"",""2028""
","
","null","<p></p>","null","","","","","","","","","","","","","","","","","","","","","","",""
"","do_trial","148","663323","0.0-82.0-0.0","""event"",""trial"",""time""
""fullscreenenter"",""0"",""2028""
","
","
","""event"",""trial"",""time""
""fullscreenenter"",""0"",""2028""
","
","379.90000000596046","","","","","","","","50","1,0,0","0","city","23","probe-176","0.4904453007078249","0.2806570837949502","0.21749752627985455","0","","","","","","","",""
"","html-keyboard-response","149","664331","0.0-82.0-1.0","""event"",""trial"",""time""
""fullscreenenter"",""0"",""2028""
","
","
","""event"",""trial"",""time""
""fullscreenenter"",""0"",""2028""
","
","null","<p></p>","null","","","","","","","","","","","","","","","","","","","","","","",""
"","do_trial","150","669458","0.0-83.0-0.0","""event"",""trial"",""time""
""fullscreenenter"",""0"",""2028""
","
","
","""event"",""trial"",""time""
""fullscreenenter"",""0"",""2028""
","
","564.1999999880791","","","","","","","","49","1,1,0","0","city","24","probe-04","0.5397202548876056","0.3148733909138198","0.251739748851079","1","","","","","","","",""
"","html-keyboard-response","151","670462","0.0-83.0-1.0","""event"",""trial"",""time""
""fullscreenenter"",""0"",""2028""
","
","
","""event"",""trial"",""time""
""fullscreenenter"",""0"",""2028""
","
","null","<p></p>","null","","","","","","","","","","","","","","","","","","","","","","",""
"","do_trial","152","675347","0.0-84.0-0.0","""event"",""trial"",""time""
""fullscreenenter"",""0"",""2028""
","
","
","""event"",""trial"",""time""
""fullscreenenter"",""0"",""2028""
","
","317.5","","","","","","","","49","1,0,0","0","city","25","probe-121","0.5852703511853978","0.2924202590891605","0.13476015702465075","1","","","","","","","",""
"","html-keyboard-response","153","676353","0.0-84.0-1.0","""event"",""trial"",""time""
""fullscreenenter"",""0"",""2028""
","
","
","""event"",""trial"",""time""
""fullscreenenter"",""0"",""2028""
","
","null","<p></p>","null","","","","","","","","","","","","","","","","","","","","","","",""
"","do_trial","154","681240","0.0-85.0-0.0","""event"",""trial"",""time""
""fullscreenenter"",""0"",""2028""
","
","
","""event"",""trial"",""time""
""fullscreenenter"",""0"",""2028""
","
","324.40000000596046","","","","","","","","51","1,0,0","0","city","26","probe-32","0.6910997575873321","0.24868103147643625","0.05662977107305305","0","","","","","","","",""
"","html-keyboard-response","155","682247","0.0-85.0-1.0","""event"",""trial"",""time""
""fullscreenenter"",""0"",""2028""
","
","
","""event"",""trial"",""time""
""fullscreenenter"",""0"",""2028""
","
","null","<p></p>","null","","","","","","","","","","","","","","","","","","","","","","",""
"","do_trial","156","687809","0.0-86.0-0.0","""event"",""trial"",""time""
""fullscreenenter"",""0"",""2028""
","
","
","""event"",""trial"",""time""
""fullscreenenter"",""0"",""2028""
","
","994.6999999880791","","","","","","","","50","1,1,1","0","city","27","probe-06","0.6331567671567343","0.1951716610510182","0.19230185409444273","1","","","","","","","",""
"","html-keyboard-response","157","688812","0.0-86.0-1.0","""event"",""trial"",""time""
""fullscreenenter"",""0"",""2028""
","
","
","""event"",""trial"",""time""
""fullscreenenter"",""0"",""2028""
","
","null","<p></p>","null","","","","","","","","","","","","","","","","","","","","","","",""
"","do_trial","158","693899","0.0-87.0-0.0","""event"",""trial"",""time""
""fullscreenenter"",""0"",""2028""
","
","
","""event"",""trial"",""time""
""fullscreenenter"",""0"",""2028""
","
","519.6000000238419","","","","","","","","50","0,1,0","0","city","28","probe-105","0.726727879886536","0.3356127518807116","0.22322209582066158","1","","","","","","","",""
"","html-keyboard-response","159","694903","0.0-87.0-1.0","""event"",""trial"",""time""
""fullscreenenter"",""0"",""2028""
","
","
","""event"",""trial"",""time""
""fullscreenenter"",""0"",""2028""
","
","null","<p></p>","null","","","","","","","","","","","","","","","","","","","","","","",""
"","do_trial","160","699736","0.0-88.0-0.0","""event"",""trial"",""time""
""fullscreenenter"",""0"",""2028""
","
","
","""event"",""trial"",""time""
""fullscreenenter"",""0"",""2028""
","
","264.09999999403954","","","","","","","","49","1,1,0","0","city","29","probe-96","0.67087499180899","0.3658921424034125","0.12089001252802853","1","","","","","","","",""
"","html-keyboard-response","161","700739","0.0-88.0-1.0","""event"",""trial"",""time""
""fullscreenenter"",""0"",""2028""
","
","
","""event"",""trial"",""time""
""fullscreenenter"",""0"",""2028""
","
","null","<p></p>","null","","","","","","","","","","","","","","","","","","","","","","",""
"","do_bye","162","702247","0.0-89.0-0.0","""event"",""trial"",""time""
""fullscreenenter"",""0"",""2028""
","
","
","""event"",""trial"",""time""
""fullscreenenter"",""0"",""2028""
","
","null","","","","","","","","null","","","","","","","","","","","","","","","","",""
"","break","163","705271","0.0-89.0-1.0","""event"",""trial"",""time""
""fullscreenenter"",""0"",""2028""
","
","
","""event"",""trial"",""time""
""fullscreenenter"",""0"",""2028""
","
","3022.5999999940395","<div class='center'><p>Time to take a quick break! You have 2 minutes to rest, but you can move on sooner if you'd like.</p><p> Press the <b>space bar</b> to continue.</p></div>","32","","","","","","","","","","","","","","","","","","","","","","",""
"","do_travel","164","714280","0.0-90.0-0.0","""event"",""trial"",""time""
""fullscreenenter"",""0"",""2028""
","
","
","""event"",""trial"",""time""
""fullscreenenter"",""0"",""2028""
","
","null","","","","","","","","null","","","","","","","","","","","","","","","","",""
"","do_welcome","165","718291","0.0-90.0-1.0","""event"",""trial"",""time""
""fullscreenenter"",""0"",""2028""
","
","
","""event"",""trial"",""time""
""fullscreenenter"",""0"",""2028""
","
","null","","","","","","","","null","","","","","","","","","","","","","","","","",""
"","do_trial","166","723967","0.0-91.0-0.0","""event"",""trial"",""time""
""fullscreenenter"",""0"",""2028""
","
","
","""event"",""trial"",""time""
""fullscreenenter"",""0"",""2028""
","
","1110.5","","","","","","","","49","1,0,0","1","forest","30","probe-154","1","0.32127096861618243","0.16718840159095408","1","","","","","","","",""
"","html-keyboard-response","167","724975","0.0-91.0-1.0","""event"",""trial"",""time""
""fullscreenenter"",""0"",""2028""
","
","
","""event"",""trial"",""time""
""fullscreenenter"",""0"",""2028""
","
","null","<p></p>","null","","","","","","","","","","","","","","","","","","","","","","",""
"","do_trial","168","729922","0.0-92.0-0.0","""event"",""trial"",""time""
""fullscreenenter"",""0"",""2028""
","
","
","""event"",""trial"",""time""
""fullscreenenter"",""0"",""2028""
","
","379.40000000596046","","","","","","","","50","1,1,0","1","forest","31","probe-219","1","0.38996396810771217","0.16850240463765023","1","","","","","","","",""
"","html-keyboard-response","169","730924","0.0-92.0-1.0","""event"",""trial"",""time""
""fullscreenenter"",""0"",""2028""
","
","
","""event"",""trial"",""time""
""fullscreenenter"",""0"",""2028""
","
","null","<p></p>","null","","","","","","","","","","","","","","","","","","","","","","",""
"","do_trial","170","735807","0.0-93.0-0.0","""event"",""trial"",""time""
""fullscreenenter"",""0"",""2028""
","
","
","""event"",""trial"",""time""
""fullscreenenter"",""0"",""2028""
","
","319.80000001192093","","","","","","","","49","1,1,0","1","forest","32","probe-51","1","0.43282504874445354","0.1460122806296462","1","","","","","","","",""
"","html-keyboard-response","171","736810","0.0-93.0-1.0","""event"",""trial"",""time""
""fullscreenenter"",""0"",""2028""
","
","
","""event"",""trial"",""time""
""fullscreenenter"",""0"",""2028""
","
","null","<p></p>","null","","","","","","","","","","","","","","","","","","","","","","",""
"","do_trial","172","741988","0.0-94.0-0.0","""event"",""trial"",""time""
""fullscreenenter"",""0"",""2028""
","
","
","""event"",""trial"",""time""
""fullscreenenter"",""0"",""2028""
","
","609.5","","","","","","","","50","1,1,0","1","forest","33","probe-36","0.7783412536404016","0.46514154824346676","0.1453908512232431","1","","","","","","","",""
"","html-keyboard-response","173","742998","0.0-94.0-1.0","""event"",""trial"",""time""
""fullscreenenter"",""0"",""2028""
","
","
","""event"",""trial"",""time""
""fullscreenenter"",""0"",""2028""
","
","null","<p></p>","null","","","","","","","","","","","","","","","","","","","","","","",""
"","do_trial","174","747885","0.0-95.0-0.0","""event"",""trial"",""time""
""fullscreenenter"",""0"",""2028""
","
","
","""event"",""trial"",""time""
""fullscreenenter"",""0"",""2028""
","
","318.7999999821186","","","","","","","","49","1,0,0","1","forest","34","probe-54","0.76208254997764","0.459785376230648","0.22181022248295862","1","","","","","","","",""
"","html-keyboard-response","175","748887","0.0-95.0-1.0","""event"",""trial"",""time""
""fullscreenenter"",""0"",""2028""
","
","
","""event"",""trial"",""time""
""fullscreenenter"",""0"",""2028""
","
","null","<p></p>","null","","","","","","","","","","","","","","","","","","","","","","",""
"","do_trial","176","753773","0.0-96.0-0.0","""event"",""trial"",""time""
""fullscreenenter"",""0"",""2028""
","
","
","""event"",""trial"",""time""
""fullscreenenter"",""0"",""2028""
","
","322.7999999821186","","","","","","","","50","1,1,0","1","forest","35","probe-144","0.5142712611847503","0.5695251997670742","0.21079185697794153","1","","","","","","","",""
"","html-keyboard-response","177","754779","0.0-96.0-1.0","""event"",""trial"",""time""
""fullscreenenter"",""0"",""2028""
","
","
","""event"",""trial"",""time""
""fullscreenenter"",""0"",""2028""
","
","null","<p></p>","null","","","","","","","","","","","","","","","","","","","","","","",""
"","do_trial","178","759674","0.0-97.0-0.0","""event"",""trial"",""time""
""fullscreenenter"",""0"",""2028""
","
","
","""event"",""trial"",""time""
""fullscreenenter"",""0"",""2028""
","
","327.2999999821186","","","","","","","","49","0,1,0","1","forest","36","probe-203","0.5981089840077114","0.4421618413546062","0.1055715869364985","0","","","","","","","",""
"","html-keyboard-response","179","760680","0.0-97.0-1.0","""event"",""trial"",""time""
""fullscreenenter"",""0"",""2028""
","
","
","""event"",""trial"",""time""
""fullscreenenter"",""0"",""2028""
","
","null","<p></p>","null","","","","","","","","","","","","","","","","","","","","","","",""
"","do_trial","180","765749","0.0-98.0-0.0","""event"",""trial"",""time""
""fullscreenenter"",""0"",""2028""
","
","
","""event"",""trial"",""time""
""fullscreenenter"",""0"",""2028""
","
","498.7999999821186","","","","","","","","51","1,0,0","1","forest","37","probe-140","0.6324349280636427","0.3996832533224282","0.19110106912262587","0","","","","","","","",""
"","html-keyboard-response","181","766754","0.0-98.0-1.0","""event"",""trial"",""time""
""fullscreenenter"",""0"",""2028""
","
","
","""event"",""trial"",""time""
""fullscreenenter"",""0"",""2028""
","
","null","<p></p>","null","","","","","","","","","","","","","","","","","","","","","","",""
"","do_trial","182","771607","0.0-99.0-0.0","""event"",""trial"",""time""
""fullscreenenter"",""0"",""2028""
","
","
","""event"",""trial"",""time""
""fullscreenenter"",""0"",""2028""
","
","316","","","","","","","","50","1,0,0","1","forest","38","probe-230","0.7032234980633445","0.4581038321630798","0.06407764617466877","0","","","","","","","",""
"","html-keyboard-response","183","772614","0.0-99.0-1.0","""event"",""trial"",""time""
""fullscreenenter"",""0"",""2028""
","
","
","""event"",""trial"",""time""
""fullscreenenter"",""0"",""2028""
","
","null","<p></p>","null","","","","","","","","","","","","","","","","","","","","","","",""
"","do_trial","184","777644","0.0-100.0-0.0","""event"",""trial"",""time""
""fullscreenenter"",""0"",""2028""
","
","
","""event"",""trial"",""time""
""fullscreenenter"",""0"",""2028""
","
","460.60000002384186","","","","","","","","49","1,1,0","1","forest","39","probe-20","0.7957903993830833","0.4246293941110647","0.08979491652902503","1","","","","","","","",""
"","html-keyboard-response","185","778648","0.0-100.0-1.0","""event"",""trial"",""time""
""fullscreenenter"",""0"",""2028""
","
","
","""event"",""trial"",""time""
""fullscreenenter"",""0"",""2028""
","
","null","<p></p>","null","","","","","","","","","","","","","","","","","","","","","","",""
"","do_trial","186","783740","0.0-101.0-0.0","""event"",""trial"",""time""
""fullscreenenter"",""0"",""2028""
","
","
","""event"",""trial"",""time""
""fullscreenenter"",""0"",""2028""
","
","527.4000000059605","","","","","","","","50","1,0,0","1","forest","40","probe-14","0.847104788520105","0.47449574635594294","0.07694544939451102","0","","","","","","","",""
"","html-keyboard-response","187","784742","0.0-101.0-1.0","""event"",""trial"",""time""
""fullscreenenter"",""0"",""2028""
","
","
","""event"",""trial"",""time""
""fullscreenenter"",""0"",""2028""
","
","null","<p></p>","null","","","","","","","","","","","","","","","","","","","","","","",""
"","do_trial","188","789642","0.0-102.0-0.0","""event"",""trial"",""time""
""fullscreenenter"",""0"",""2028""
","
","
","""event"",""trial"",""time""
""fullscreenenter"",""0"",""2028""
","
","335.30000001192093","","","","","","","","49","1,0,0","1","forest","41","probe-10","0.8538517946547518","0.4967952762300029","0.21099506994010667","1","","","","","","","",""
"","html-keyboard-response","189","790647","0.0-102.0-1.0","""event"",""trial"",""time""
""fullscreenenter"",""0"",""2028""
","
","
","""event"",""trial"",""time""
""fullscreenenter"",""0"",""2028""
","
","null","<p></p>","null","","","","","","","","","","","","","","","","","","","","","","",""
"","do_trial","190","795511","0.0-103.0-0.0","""event"",""trial"",""time""
""fullscreenenter"",""0"",""2028""
","
","
","""event"",""trial"",""time""
""fullscreenenter"",""0"",""2028""
","
","299.90000000596046","","","","","","","","50","1,1,1","1","forest","42","probe-50","0.6542885672833734","0.4472256416197778","0.44439567320465073","1","","","","","","","",""
"","html-keyboard-response","191","796516","0.0-103.0-1.0","""event"",""trial"",""time""
""fullscreenenter"",""0"",""2028""
","
","
","""event"",""trial"",""time""
""fullscreenenter"",""0"",""2028""
","
","null","<p></p>","null","","","","","","","","","","","","","","","","","","","","","","",""
"","do_trial","192","801657","0.0-104.0-0.0","""event"",""trial"",""time""
""fullscreenenter"",""0"",""2028""
","
","
","""event"",""trial"",""time""
""fullscreenenter"",""0"",""2028""
","
","586.6999999880791","","","","","","","","49","0,0,0","1","forest","43","probe-56","0.4597251115506451","0.38066478115759855","0.5565711323791693","0","","","","","","","",""
"","html-keyboard-response","193","802660","0.0-104.0-1.0","""event"",""trial"",""time""
""fullscreenenter"",""0"",""2028""
","
","
","""event"",""trial"",""time""
""fullscreenenter"",""0"",""2028""
","
","null","<p></p>","null","","","","","","","","","","","","","","","","","","","","","","",""
"","do_trial","194","807632","0.0-105.0-0.0","""event"",""trial"",""time""
""fullscreenenter"",""0"",""2028""
","
","
","""event"",""trial"",""time""
""fullscreenenter"",""0"",""2028""
","
","400.2000000178814","","","","","","","","50","0,1,0","1","forest","44","probe-206","0.1693646337560273","0.36454786277778695","0.5374757013769663","1","","","","","","","",""
"","html-keyboard-response","195","808639","0.0-105.0-1.0","""event"",""trial"",""time""
""fullscreenenter"",""0"",""2028""
","
","
","""event"",""trial"",""time""
""fullscreenenter"",""0"",""2028""
","
","null","<p></p>","null","","","","","","","","","","","","","","","","","","","","","","",""
"","do_trial","196","813512","0.0-106.0-0.0","""event"",""trial"",""time""
""fullscreenenter"",""0"",""2028""
","
","
","""event"",""trial"",""time""
""fullscreenenter"",""0"",""2028""
","
","304.40000000596046","","","","","","","","51","1,1,1","1","forest","45","probe-109","0.2124151959831615","0.3240677207732261","0.627206715054601","1","","","","","","","",""
"","html-keyboard-response","197","814516","0.0-106.0-1.0","""event"",""trial"",""time""
""fullscreenenter"",""0"",""2028""
","
","
","""event"",""trial"",""time""
""fullscreenenter"",""0"",""2028""
","
","null","<p></p>","null","","","","","","","","","","","","","","","","","","","","","","",""
"","do_trial","198","819533","0.0-107.0-0.0","""event"",""trial"",""time""
""fullscreenenter"",""0"",""2028""
","
","
","""event"",""trial"",""time""
""fullscreenenter"",""0"",""2028""
","
","451.5","","","","","","","","50","1,1,0","1","forest","46","probe-164","0.28687317756388325","0.35897340565258845","0.5347995846439655","1","","","","","","","",""
"","html-keyboard-response","199","820540","0.0-107.0-1.0","""event"",""trial"",""time""
""fullscreenenter"",""0"",""2028""
","
","
","""event"",""trial"",""time""
""fullscreenenter"",""0"",""2028""
","
","null","<p></p>","null","","","","","","","","","","","","","","","","","","","","","","",""
"","do_trial","200","826336","0.0-108.0-0.0","""event"",""trial"",""time""
""fullscreenenter"",""0"",""2028""
","
","
","""event"",""trial"",""time""
""fullscreenenter"",""0"",""2028""
","
","1226.5999999940395","","","","","","","","49","0,1,0","1","forest","47","probe-173","0.22028836554702502","0.30319772174661647","0.5563171234402912","0","","","","","","","",""
"","html-keyboard-response","201","827340","0.0-108.0-1.0","""event"",""trial"",""time""
""fullscreenenter"",""0"",""2028""
","
","
","""event"",""trial"",""time""
""fullscreenenter"",""0"",""2028""
","
","null","<p></p>","null","","","","","","","","","","","","","","","","","","","","","","",""
"","do_trial","202","832442","0.0-109.0-0.0","""event"",""trial"",""time""
""fullscreenenter"",""0"",""2028""
","
","
","""event"",""trial"",""time""
""fullscreenenter"",""0"",""2028""
","
","540.5","","","","","","","","50","0,0,0","1","forest","48","probe-103","0.1757074921010273","0.45119568580175967","0.5542618182173578","0","","","","","","","",""
"","html-keyboard-response","203","833447","0.0-109.0-1.0","""event"",""trial"",""time""
""fullscreenenter"",""0"",""2028""
","
","
","""event"",""trial"",""time""
""fullscreenenter"",""0"",""2028""
","
","null","<p></p>","null","","","","","","","","","","","","","","","","","","","","","","",""
"","do_trial","204","838255","0.0-110.0-0.0","""event"",""trial"",""time""
""fullscreenenter"",""0"",""2028""
","
","
","""event"",""trial"",""time""
""fullscreenenter"",""0"",""2028""
","
","244.10000002384186","","","","","","","","49","0,1,0","1","forest","49","probe-99","0.09451659948990786","0.3986959238884715","0.5544960986330546","0","","","","","","","",""
"","html-keyboard-response","205","839261","0.0-110.0-1.0","""event"",""trial"",""time""
""fullscreenenter"",""0"",""2028""
","
","
","""event"",""trial"",""time""
""fullscreenenter"",""0"",""2028""
","
","null","<p></p>","null","","","","","","","","","","","","","","","","","","","","","","",""
"","do_trial","206","844284","0.0-111.0-0.0","""event"",""trial"",""time""
""fullscreenenter"",""0"",""2028""
","
","
","""event"",""trial"",""time""
""fullscreenenter"",""0"",""2028""
","
","454.30000001192093","","","","","","","","50","0,0,1","1","forest","50","probe-47","0.18616558884910844","0.39298352127016134","0.6597239474763967","0","","","","","","","",""
"","html-keyboard-response","207","845291","0.0-111.0-1.0","""event"",""trial"",""time""
""fullscreenenter"",""0"",""2028""
","
","
","""event"",""trial"",""time""
""fullscreenenter"",""0"",""2028""
","
","null","<p></p>","null","","","","","","","","","","","","","","","","","","","","","","",""
"","do_trial","208","850297","0.0-112.0-0.0","""event"",""trial"",""time""
""fullscreenenter"",""0"",""2028""
","
","
","""event"",""trial"",""time""
""fullscreenenter"",""0"",""2028""
","
","440.10000002384186","","","","","","","","51","0,0,1","1","forest","51","probe-127","0.15518863358020304","0.333163115382646","0.6576312199308956","1","","","","","","","",""
"","html-keyboard-response","209","851302","0.0-112.0-1.0","""event"",""trial"",""time""
""fullscreenenter"",""0"",""2028""
","
","
","""event"",""trial"",""time""
""fullscreenenter"",""0"",""2028""
","
","null","<p></p>","null","","","","","","","","","","","","","","","","","","","","","","",""
"","do_trial","210","856205","0.0-113.0-0.0","""event"",""trial"",""time""
""fullscreenenter"",""0"",""2028""
","
","
","""event"",""trial"",""time""
""fullscreenenter"",""0"",""2028""
","
","337.40000000596046","","","","","","","","49","0,0,1","1","forest","52","probe-148","0.21475550505881508","0.31604552161625704","0.7461537435696138","0","","","","","","","",""
"","html-keyboard-response","211","857212","0.0-113.0-1.0","""event"",""trial"",""time""
""fullscreenenter"",""0"",""2028""
","
","
","""event"",""trial"",""time""
""fullscreenenter"",""0"",""2028""
","
","null","<p></p>","null","","","","","","","","","","","","","","","","","","","","","","",""
"","do_trial","212","862315","0.0-114.0-0.0","""event"",""trial"",""time""
""fullscreenenter"",""0"",""2028""
","
","
","""event"",""trial"",""time""
""fullscreenenter"",""0"",""2028""
","
","540","","","","","","","","51","0,1,1","1","forest","53","probe-209","0.07792748795782446","0.346262290177081","0.8484989300511323","1","","","","","","","",""
"","html-keyboard-response","213","863318","0.0-114.0-1.0","""event"",""trial"",""time""
""fullscreenenter"",""0"",""2028""
","
","
","""event"",""trial"",""time""
""fullscreenenter"",""0"",""2028""
","
","null","<p></p>","null","","","","","","","","","","","","","","","","","","","","","","",""
"","do_trial","214","868294","0.0-115.0-0.0","""event"",""trial"",""time""
""fullscreenenter"",""0"",""2028""
","
","
","""event"",""trial"",""time""
""fullscreenenter"",""0"",""2028""
","
","408.80000001192093","","","","","","","","50","0,0,0","1","forest","54","probe-122","0.13307325197392975","0.3874452740115028","0.7635926317730115","0","","","","","","","",""
"","html-keyboard-response","215","869299","0.0-115.0-1.0","""event"",""trial"",""time""
""fullscreenenter"",""0"",""2028""
","
","
","""event"",""trial"",""time""
""fullscreenenter"",""0"",""2028""
","
","null","<p></p>","null","","","","","","","","","","","","","","","","","","","","","","",""
"","do_trial","216","874154","0.0-116.0-0.0","""event"",""trial"",""time""
""fullscreenenter"",""0"",""2028""
","
","
","""event"",""trial"",""time""
""fullscreenenter"",""0"",""2028""
","
","284.69999998807907","","","","","","","","49","1,1,0","1","forest","55","probe-11","0.15223039564383706","0.27643960526854644","0.7369720449601715","1","","","","","","","",""
"","html-keyboard-response","217","875161","0.0-116.0-1.0","""event"",""trial"",""time""
""fullscreenenter"",""0"",""2028""
","
","
","""event"",""trial"",""time""
""fullscreenenter"",""0"",""2028""
","
","null","<p></p>","null","","","","","","","","","","","","","","","","","","","","","","",""
"","do_trial","218","880391","0.0-117.0-0.0","""event"",""trial"",""time""
""fullscreenenter"",""0"",""2028""
","
","
","""event"",""trial"",""time""
""fullscreenenter"",""0"",""2028""
","
","662.8999999761581","","","","","","","","51","0,1,1","1","forest","56","probe-91","0.20869306957076583","0.2568356020501286","0.8028280499950421","1","","","","","","","",""
"","html-keyboard-response","219","881394","0.0-117.0-1.0","""event"",""trial"",""time""
""fullscreenenter"",""0"",""2028""
","
","
","""event"",""trial"",""time""
""fullscreenenter"",""0"",""2028""
","
","null","<p></p>","null","","","","","","","","","","","","","","","","","","","","","","",""
"","do_trial","220","886219","0.0-118.0-0.0","""event"",""trial"",""time""
""fullscreenenter"",""0"",""2028""
","
","
","""event"",""trial"",""time""
""fullscreenenter"",""0"",""2028""
","
","259.7000000178814","","","","","","","","51","0,0,1","1","forest","57","probe-210","0.1803771492589298","0.2134874491227425","0.788971277397859","1","","","","","","","",""
"","html-keyboard-response","221","887226","0.0-118.0-1.0","""event"",""trial"",""time""
""fullscreenenter"",""0"",""2028""
","
","
","""event"",""trial"",""time""
""fullscreenenter"",""0"",""2028""
","
","null","<p></p>","null","","","","","","","","","","","","","","","","","","","","","","",""
"","do_trial","222","891963","0.0-119.0-0.0","""event"",""trial"",""time""
""fullscreenenter"",""0"",""2028""
","
","
","""event"",""trial"",""time""
""fullscreenenter"",""0"",""2028""
","
","175","","","","","","","","49","0,0,0","1","forest","58","probe-113","0.07185930260455017","0.26091517373138645","0.5142956980922994","0","","","","","","","",""
"","html-keyboard-response","223","892965","0.0-119.0-1.0","""event"",""trial"",""time""
""fullscreenenter"",""0"",""2028""
","
","
","""event"",""trial"",""time""
""fullscreenenter"",""0"",""2028""
","
","null","<p></p>","null","","","","","","","","","","","","","","","","","","","","","","",""
"","do_trial","224","898417","0.0-120.0-0.0","""event"",""trial"",""time""
""fullscreenenter"",""0"",""2028""
","
","
","""event"",""trial"",""time""
""fullscreenenter"",""0"",""2028""
","
","888.4000000059605","","","","","","","","51","1,0,0","1","forest","59","probe-98","0.07481392206630316","0.31849812639343467","0.5480805339321604","0","","","","","","","",""
"","html-keyboard-response","225","899420","0.0-120.0-1.0","""event"",""trial"",""time""
""fullscreenenter"",""0"",""2028""
","
","
","""event"",""trial"",""time""
""fullscreenenter"",""0"",""2028""
","
","null","<p></p>","null","","","","","","","","","","","","","","","","","","","","","","",""
"","do_trial","226","904251","0.0-121.0-0.0","""event"",""trial"",""time""
""fullscreenenter"",""0"",""2028""
","
","
","""event"",""trial"",""time""
""fullscreenenter"",""0"",""2028""
","
","262.69999998807907","","","","","","","","50","1,0,1","1","forest","60","probe-100","0.081575291825779","0.18366499223855998","0.5615248507654951","0","","","","","","","",""
"","html-keyboard-response","227","905255","0.0-121.0-1.0","""event"",""trial"",""time""
""fullscreenenter"",""0"",""2028""
","
","
","""event"",""trial"",""time""
""fullscreenenter"",""0"",""2028""
","
","null","<p></p>","null","","","","","","","","","","","","","","","","","","","","","","",""
"","do_trial","228","910258","0.0-122.0-0.0","""event"",""trial"",""time""
""fullscreenenter"",""0"",""2028""
","
","
","""event"",""trial"",""time""
""fullscreenenter"",""0"",""2028""
","
","435.40000000596046","","","","","","","","49","0,1,1","1","forest","61","probe-74","0.08393781581956324","0.2591369245593186","0.5912899144719393","0","","","","","","","",""
"","html-keyboard-response","229","911262","0.0-122.0-1.0","""event"",""trial"",""time""
""fullscreenenter"",""0"",""2028""
","
","
","""event"",""trial"",""time""
""fullscreenenter"",""0"",""2028""
","
","null","<p></p>","null","","","","","","","","","","","","","","","","","","","","","","",""
"","do_trial","230","916115","0.0-123.0-0.0","""event"",""trial"",""time""
""fullscreenenter"",""0"",""2028""
","
","
","""event"",""trial"",""time""
""fullscreenenter"",""0"",""2028""
","
","288.59999999403954","","","","","","","","50","1,0,1","1","forest","62","probe-102","0.10731295178284596","0.14951004056254796","0.5644899417117354","0","","","","","","","",""
"","html-keyboard-response","231","917119","0.0-123.0-1.0","""event"",""trial"",""time""
""fullscreenenter"",""0"",""2028""
","
","
","""event"",""trial"",""time""
""fullscreenenter"",""0"",""2028""
","
","null","<p></p>","null","","","","","","","","","","","","","","","","","","","","","","",""
"","do_trial","232","921999","0.0-124.0-0.0","""event"",""trial"",""time""
""fullscreenenter"",""0"",""2028""
","
","
","""event"",""trial"",""time""
""fullscreenenter"",""0"",""2028""
","
","316","","","","","","","","49","0,0,1","1","forest","63","probe-205","0.0602057985154911","0.30159686457572676","0.545369713567523","0","","","","","","","",""
"","html-keyboard-response","233","923002","0.0-124.0-1.0","""event"",""trial"",""time""
""fullscreenenter"",""0"",""2028""
","
","
","""event"",""trial"",""time""
""fullscreenenter"",""0"",""2028""
","
","null","<p></p>","null","","","","","","","","","","","","","","","","","","","","","","",""
"","do_trial","234","928058","0.0-125.0-0.0","""event"",""trial"",""time""
""fullscreenenter"",""0"",""2028""
","
","
","""event"",""trial"",""time""
""fullscreenenter"",""0"",""2028""
","
","487","","","","","","","","50","0,1,1","1","forest","64","probe-228","0.1195976498760679","0.19954522711889958","0.5247024478020489","1","","","","","","","",""
"","html-keyboard-response","235","929065","0.0-125.0-1.0","""event"",""trial"",""time""
""fullscreenenter"",""0"",""2028""
","
","
","""event"",""trial"",""time""
""fullscreenenter"",""0"",""2028""
","
","null","<p></p>","null","","","","","","","","","","","","","","","","","","","","","","",""
"","do_trial","236","934071","0.0-126.0-0.0","""event"",""trial"",""time""
""fullscreenenter"",""0"",""2028""
","
","
","""event"",""trial"",""time""
""fullscreenenter"",""0"",""2028""
","
","437","","","","","","","","51","0,1,1","1","forest","65","probe-130","0.21958054907289412","0.37133867952769584","0.5987768761238413","1","","","","","","","",""
"","html-keyboard-response","237","935076","0.0-126.0-1.0","""event"",""trial"",""time""
""fullscreenenter"",""0"",""2028""
","
","
","""event"",""trial"",""time""
""fullscreenenter"",""0"",""2028""
","
","null","<p></p>","null","","","","","","","","","","","","","","","","","","","","","","",""
"","do_trial","238","939882","0.0-127.0-0.0","""event"",""trial"",""time""
""fullscreenenter"",""0"",""2028""
","
","
","""event"",""trial"",""time""
""fullscreenenter"",""0"",""2028""
","
","266.69999998807907","","","","","","","","49","0,0,0","1","forest","66","probe-220","0.08842651332756452","0.35598793262881373","0.5644935048283876","0","","","","","","","",""
"","html-keyboard-response","239","940887","0.0-127.0-1.0","""event"",""trial"",""time""
""fullscreenenter"",""0"",""2028""
","
","
","""event"",""trial"",""time""
""fullscreenenter"",""0"",""2028""
","
","null","<p></p>","null","","","","","","","","","","","","","","","","","","","","","","",""
"","do_trial","240","946005","0.0-128.0-0.0","""event"",""trial"",""time""
""fullscreenenter"",""0"",""2028""
","
","
","""event"",""trial"",""time""
""fullscreenenter"",""0"",""2028""
","
","547.9000000059605","","","","","","","","50","1,1,1","1","forest","67","probe-198","0.1757860683969355","0.3295617911380851","0.6339649117505227","1","","","","","","","",""
"","html-keyboard-response","241","947010","0.0-128.0-1.0","""event"",""trial"",""time""
""fullscreenenter"",""0"",""2028""
","
","
","""event"",""trial"",""time""
""fullscreenenter"",""0"",""2028""
","
","null","<p></p>","null","","","","","","","","","","","","","","","","","","","","","","",""
"","do_trial","242","951835","0.0-129.0-0.0","""event"",""trial"",""time""
""fullscreenenter"",""0"",""2028""
","
","
","""event"",""trial"",""time""
""fullscreenenter"",""0"",""2028""
","
","287.7000000178814","","","","","","","","49","1,1,0","1","forest","68","probe-73","0.0808425645366972","0.38654508284366346","0.7177960494904377","1","","","","","","","",""
"","html-keyboard-response","243","952844","0.0-129.0-1.0","""event"",""trial"",""time""
""fullscreenenter"",""0"",""2028""
","
","
","""event"",""trial"",""time""
""fullscreenenter"",""0"",""2028""
","
","null","<p></p>","null","","","","","","","","","","","","","","","","","","","","","","",""
"","do_trial","244","957851","0.0-130.0-0.0","""event"",""trial"",""time""
""fullscreenenter"",""0"",""2028""
","
","
","""event"",""trial"",""time""
""fullscreenenter"",""0"",""2028""
","
","437.69999998807907","","","","","","","","50","0,0,0","1","forest","69","probe-162","0.10876921305676103","0.2277469484854511","0.8411293624463568","0","","","","","","","",""
"","html-keyboard-response","245","958859","0.0-130.0-1.0","""event"",""trial"",""time""
""fullscreenenter"",""0"",""2028""
","
","
","""event"",""trial"",""time""
""fullscreenenter"",""0"",""2028""
","
","null","<p></p>","null","","","","","","","","","","","","","","","","","","","","","","",""
"","do_bye","246","960367","0.0-131.0-0.0","""event"",""trial"",""time""
""fullscreenenter"",""0"",""2028""
","
","
","""event"",""trial"",""time""
""fullscreenenter"",""0"",""2028""
","
","null","","","","","","","","null","","","","","","","","","","","","","","","","",""
"","break","247","1080367","0.0-131.0-1.0","""event"",""trial"",""time""
""fullscreenenter"",""0"",""2028""
","
","
","""event"",""trial"",""time""
""fullscreenenter"",""0"",""2028""
","
","null","<div class='center'><p>Time to take a quick break! You have 2 minutes to rest, but you can move on sooner if you'd like.</p><p> Press the <b>space bar</b> to continue.</p></div>","null","","","","","","","","","","","","","","","","","","","","","","",""
"","do_travel","248","1089378","0.0-132.0-0.0","""event"",""trial"",""time""
""fullscreenenter"",""0"",""2028""
","
","
","""event"",""trial"",""time""
""fullscreenenter"",""0"",""2028""
","
","null","","","","","","","","null","","","","","","","","","","","","","","","","",""
"","do_welcome","249","1093387","0.0-132.0-1.0","""event"",""trial"",""time""
""fullscreenenter"",""0"",""2028""
","
","
","""event"",""trial"",""time""
""fullscreenenter"",""0"",""2028""
","
","null","","","","","","","","null","","","","","","","","","","","","","","","","",""
"","do_trial","250","1099262","0.0-133.0-0.0","""event"",""trial"",""time""
""fullscreenenter"",""0"",""2028""
","
","
","""event"",""trial"",""time""
""fullscreenenter"",""0"",""2028""
","
","1306.0999999940395","","","","","","","","49","0,1,1","2","highway","70","probe-124","0.13857914911635777","0.22472445439320787","1","0","","","","","","","",""
"","html-keyboard-response","251","1100268","0.0-133.0-1.0","""event"",""trial"",""time""
""fullscreenenter"",""0"",""2028""
","
","
","""event"",""trial"",""time""
""fullscreenenter"",""0"",""2028""
","
","null","<p></p>","null","","","","","","","","","","","","","","","","","","","","","","",""
"","do_trial","252","1105241","0.0-134.0-0.0","""event"",""trial"",""time""
""fullscreenenter"",""0"",""2028""
","
","
","""event"",""trial"",""time""
""fullscreenenter"",""0"",""2028""
","
","431.09999999403954","","","","","","","","50","0,0,1","2","highway","71","probe-222","0.2424672929648839","0.23751329331850804","1","0","","","","","","","",""
"","html-keyboard-response","253","1106248","0.0-134.0-1.0","""event"",""trial"",""time""
""fullscreenenter"",""0"",""2028""
","
","
","""event"",""trial"",""time""
""fullscreenenter"",""0"",""2028""
","
","null","<p></p>","null","","","","","","","","","","","","","","","","","","","","","","",""
"","do_trial","254","1111239","0.0-135.0-0.0","""event"",""trial"",""time""
""fullscreenenter"",""0"",""2028""
","
","
","""event"",""trial"",""time""
""fullscreenenter"",""0"",""2028""
","
","419.40000000596046","","","","","","","","49","1,0,1","2","highway","72","probe-16","0.21887086145829066","0.298138239260357","0.8365798230928104","1","","","","","","","",""
"","html-keyboard-response","255","1112249","0.0-135.0-1.0","""event"",""trial"",""time""
""fullscreenenter"",""0"",""2028""
","
","
","""event"",""trial"",""time""
""fullscreenenter"",""0"",""2028""
","
","null","<p></p>","null","","","","","","","","","","","","","","","","","","","","","","",""
"","do_trial","256","1117117","0.0-136.0-0.0","""event"",""trial"",""time""
""fullscreenenter"",""0"",""2028""
","
","
","""event"",""trial"",""time""
""fullscreenenter"",""0"",""2028""
","
","304.7000000178814","","","","","","","","51","1,0,1","2","highway","73","probe-123","0.13058287206988872","0.25331362283680375","0.7900119739754301","1","","","","","","","",""
"","html-keyboard-response","257","1118119","0.0-136.0-1.0","""event"",""trial"",""time""
""fullscreenenter"",""0"",""2028""
","
","
","""event"",""trial"",""time""
""fullscreenenter"",""0"",""2028""
","
","null","<p></p>","null","","","","","","","","","","","","","","","","","","","","","","",""
"","do_trial","258","1122937","0.0-137.0-0.0","""event"",""trial"",""time""
""fullscreenenter"",""0"",""2028""
","
","
","""event"",""trial"",""time""
""fullscreenenter"",""0"",""2028""
","
","249.09999999403954","","","","","","","","49","0,0,1","2","highway","74","probe-191","0.09354755435559342","0.30277656640854766","0.6921983123484017","0","","","","","","","",""
