"success","trial_type","trial_index","time_elapsed","internal_node_id","interactions","blur_events","focus_events","fullscreenenter_events","fullscreenexit_events","rt","stimulus","key_press","subject_id","participant_id","age","gender","prompt","response","choice_outcomes","context_n","context_img_id","trial_n","probe_img_id","pR_red","pR_white","pR_black","outcome","contextArray_ind","validImageProbes","invalidImageProbes","pRew_Red","pRew_White","pRew_Black","availableForMemProbe","choice_blocks"
"true","fullscreen","0","5187","0.0-0.0","""event"",""trial"",""time""
""fullscreenenter"",""0"",""4212""
","
","
","""event"",""trial"",""time""
""fullscreenenter"",""0"",""4212""
","
","","","","","","","","","","","","","","","","","","","","","","","","","",""
"","pavlovia","1","5200","0.0-1.0","""event"",""trial"",""time""
""fullscreenenter"",""0"",""4212""
","
","
","""event"",""trial"",""time""
""fullscreenenter"",""0"",""4212""
","
","","","","","","","","","","","","","","","","","","","","","","","","","",""
"","instruc1","2","50377","0.0-2.0","""event"",""trial"",""time""
""fullscreenenter"",""0"",""4212""
","
","
","""event"",""trial"",""time""
""fullscreenenter"",""0"",""4212""
","
","null","run_exp/static/audio/clip_1_welcome.m4a","null","1389","1457","14","Female","<div class='center'><p>Welcome! This is the first part of the study. It will last ~30 minutes. In part 1 and part 2 of the study, you are the head captain of a pirate ship traveling around the world to different islands. You will play a few different games throughout these two parts. Here is an overview of them:</p><br><p>Part 1 (today)</p><p>1. Instructions, practice game, and quiz</p><p>2. Pick a pirate game on 6 different islands</p><br><p>Part 2 (tomorrow)</p><p>3. Pick a pirate game and memory game</p><p>4. Where did you see this ship? </p></div>","","","","","","","","","","","","","","","","","",""
"","html-keyboard-response","3","51816","0.0-3.0","""event"",""trial"",""time""
""fullscreenenter"",""0"",""4212""
","
","
","""event"",""trial"",""time""
""fullscreenenter"",""0"",""4212""
","
","1433.5","<div class='center'><p>Welcome! This is the first part of the study. It will last ~30 minutes. In part 1 and part 2 of the study, you are the head captain of a pirate ship traveling around the world to different islands. You will play a few different games throughout these two parts. Here is an overview of them:</p><br><p>Part 1 (today)</p><p>1. Instructions, practice game, and quiz</p><p>2. Pick a pirate game on 6 different islands</p><br><p>Part 2 (tomorrow)</p><p>3. Pick a pirate game and memory game</p><p>4. Where did you see this ship? </p><p><b>[Press the space bar to continue]</b></p></div>","32","","","","","","","","","","","","","","","","","","","","","","",""
"","instruc2","4","57335","0.0-4.0","""event"",""trial"",""time""
""fullscreenenter"",""0"",""4212""
","
","
","""event"",""trial"",""time""
""fullscreenenter"",""0"",""4212""
","
","null","run_exp/static/audio/clip_2_different_places.m4a","null","","","","","<div class='center'><p>Today, you’ll visit these 6 islands on your journey. You'll be able to see these islands from your ship.</p><p><img src='run_exp/static/images/contexts/all_contexts.png' height='500'></p></div>","","","","","","","","","","","","","","","","","",""
"","html-keyboard-response","5","58187","0.0-5.0","""event"",""trial"",""time""
""fullscreenenter"",""0"",""4212""
","
","
","""event"",""trial"",""time""
""fullscreenenter"",""0"",""4212""
","
","845.5","<div class='center'><p>Today, you’ll visit these 6 islands on your journey. You'll be able to see these islands from your ship.</p><p><img src='run_exp/static/images/contexts/all_contexts.png' height='500'></p><p><b>[Press the space bar to continue]</b></p></div>","32","","","","","","","","","","","","","","","","","","","","","","",""
"","instruc3","6","68110","0.0-6.0","""event"",""trial"",""time""
""fullscreenenter"",""0"",""4212""
","
","
","""event"",""trial"",""time""
""fullscreenenter"",""0"",""4212""
","
","null","run_exp/static/audio/clip_3_goal_of_game_1.m4a","null","","","","","<div class='center'><p> The pirates on your ship will rob other ships as they leave the island.</p> These ships have just sold their goods to the islanders, so they will be filled with lots and lots of gold.</p><p><img src='run_exp/static/images/tutorial/ship_center.png' height='400'></p></div>","","","","","","","","","","","","","","","","","",""
"","html-keyboard-response","7","68718","0.0-7.0","""event"",""trial"",""time""
""fullscreenenter"",""0"",""4212""
","
","
","""event"",""trial"",""time""
""fullscreenenter"",""0"",""4212""
","
","601.5","<div class='center'><p> The pirates on your ship will rob other ships as they leave the island.</p> These ships have just sold their goods to the islanders, so they will be filled with lots and lots of gold.</p><p><img src='run_exp/static/images/tutorial/ship_center.png' height='400'></p><p><b>[Press the space bar to continue]</b></p></div>","32","","","","","","","","","","","","","","","","","","","","","","",""
"","instruc4","8","96904","0.0-8.0","""event"",""trial"",""time""
""fullscreenenter"",""0"",""4212""
","
","
","""event"",""trial"",""time""
""fullscreenenter"",""0"",""4212""
","
","null","run_exp/static/audio/clip_4_goal_of_game_2.m4a","null","","","","","<div class='center'><p>As the head captain, you do not have to rob any ships yourself. Another pirate will be doing the robbing for you. First, you will choose a pirate to rob the next ship.</p><p><img src='run_exp/static/images/tutorial/pirates_all_crop.png' height='200'></p><p>Then, you'll see if the pirate successfully robbed the ship of their gold. If they were successful, then you'll get a stack of gold coins like this:</p><p><img src='run_exp/static/images/tutorial/reward.png' height='150'></p><p> If they were <b>not</b> successful, then you'll get no gold coins, and you'll see a big red x like this: </p><p><img src='run_exp/static/images/tutorial/reward_no.png' height='150'></p><p> How much bonus money you make is based on how many gold coins you collect.</p><div>","","","","","","","","","","","","","","","","","",""
"","html-keyboard-response","9","99799","0.0-9.0","""event"",""trial"",""time""
""fullscreenenter"",""0"",""4212""
","
","
","""event"",""trial"",""time""
""fullscreenenter"",""0"",""4212""
","
","2889.0999999996275","<div class='center'><p>As the head captain, you do not have to rob any ships yourself. Another pirate will be doing the robbing for you. First, you will choose a pirate to rob the next ship.</p><p><img src='run_exp/static/images/tutorial/pirates_all_crop.png' height='200'></p><p>Then, you'll see if the pirate successfully robbed the ship of their gold. If they were successful, then you'll get a stack of gold coins like this:</p><p><img src='run_exp/static/images/tutorial/reward.png' height='150'></p><p> If they were <b>not</b> successful, then you'll get no gold coins, and you'll see a big red x like this: </p><p><img src='run_exp/static/images/tutorial/reward_no.png' height='150'></p><p> How much bonus money you make is based on how many gold coins you collect.</p<p><b>[Press the space bar to continue]</b></p></div>","32","","","","","","","","","","","","","","","","","","","","","","",""
"","instruc5","10","120457","0.0-10.0","""event"",""trial"",""time""
""fullscreenenter"",""0"",""4212""
","
","
","""event"",""trial"",""time""
""fullscreenenter"",""0"",""4212""
","
","20652.199999999255","run_exp/static/audio/clip_5_probabilistic.m4a","49","","","","","<div class='center'><p>Even the most skilled pirate can not rob EVERY ship.</p><p> Some ships will have very strong protections against pirate attacks.</p><p> Blue beard, here, is very, very good at robbing ships, but he won't be successful every time he tries to rob one.</p><p> You can press the <b>‘1’</b> key on the keyboard to choose him.</p><p> Try choosing him 10 times to see how often he succeeds at robbing a ship. </p><p><img src='run_exp/static/images/tutorial/blue.png' height='500'></p></div>","","","","","","","","","","","","","","","","","",""
"","html-keyboard-response","11","121963","0.0-11.0","""event"",""trial"",""time""
""fullscreenenter"",""0"",""4212""
","
","
","""event"",""trial"",""time""
""fullscreenenter"",""0"",""4212""
","
","null","<div class='center'><p><img src='run_exp/static/images/tutorial/blue_win.png' height='500'></p></div>","null","","","","","","","","","","","","","","","","","","","","","","",""
"","html-keyboard-response","12","125433","0.0-12.0","""event"",""trial"",""time""
""fullscreenenter"",""0"",""4212""
","
","
","""event"",""trial"",""time""
""fullscreenenter"",""0"",""4212""
","
","3463.5","<div class='center'><img src='run_exp/static/images/tutorial/blue.png' height='500'></p></div>","49","","","","","","","","","","","","","","","","","","","","","","",""
"","html-keyboard-response","13","126938","0.0-13.0","""event"",""trial"",""time""
""fullscreenenter"",""0"",""4212""
","
","
","""event"",""trial"",""time""
""fullscreenenter"",""0"",""4212""
","
","null","<div class='center'><p><img src='run_exp/static/images/tutorial/blue_win.png' height='500'></p></div>","null","","","","","","","","","","","","","","","","","","","","","","",""
"","html-keyboard-response","14","127631","0.0-14.0","""event"",""trial"",""time""
""fullscreenenter"",""0"",""4212""
","
","
","""event"",""trial"",""time""
""fullscreenenter"",""0"",""4212""
","
","688","<div class='center'><img src='run_exp/static/images/tutorial/blue.png' height='500'></p></div>","49","","","","","","","","","","","","","","","","","","","","","","",""
"","html-keyboard-response","15","129138","0.0-15.0","""event"",""trial"",""time""
""fullscreenenter"",""0"",""4212""
","
","
","""event"",""trial"",""time""
""fullscreenenter"",""0"",""4212""
","
","null","<div class='center'><p><img src='run_exp/static/images/tutorial/blue_win.png' height='500'></p></div>","null","","","","","","","","","","","","","","","","","","","","","","",""
"","html-keyboard-response","16","129894","0.0-16.0","""event"",""trial"",""time""
""fullscreenenter"",""0"",""4212""
","
","
","""event"",""trial"",""time""
""fullscreenenter"",""0"",""4212""
","
","750.2000000001863","<div class='center'><img src='run_exp/static/images/tutorial/blue.png' height='500'></p></div>","49","","","","","","","","","","","","","","","","","","","","","","",""
"","html-keyboard-response","17","131399","0.0-17.0","""event"",""trial"",""time""
""fullscreenenter"",""0"",""4212""
","
","
","""event"",""trial"",""time""
""fullscreenenter"",""0"",""4212""
","
","null","<div class='center'><p><img src='run_exp/static/images/tutorial/blue_no_win.png' height='500'></p></div>","null","","","","","","","","","","","","","","","","","","","","","","",""
"","html-keyboard-response","18","132813","0.0-18.0","""event"",""trial"",""time""
""fullscreenenter"",""0"",""4212""
","
","
","""event"",""trial"",""time""
""fullscreenenter"",""0"",""4212""
","
","1410.2000000001863","<div class='center'><img src='run_exp/static/images/tutorial/blue.png' height='500'></p></div>","49","","","","","","","","","","","","","","","","","","","","","","",""
"","html-keyboard-response","19","134319","0.0-19.0","""event"",""trial"",""time""
""fullscreenenter"",""0"",""4212""
","
","
","""event"",""trial"",""time""
""fullscreenenter"",""0"",""4212""
","
","null","<div class='center'><p><img src='run_exp/static/images/tutorial/blue_win.png' height='500'></p></div>","null","","","","","","","","","","","","","","","","","","","","","","",""
"","html-keyboard-response","20","135801","0.0-20.0","""event"",""trial"",""time""
""fullscreenenter"",""0"",""4212""
","
","
","""event"",""trial"",""time""
""fullscreenenter"",""0"",""4212""
","
","1478.8999999994412","<div class='center'><img src='run_exp/static/images/tutorial/blue.png' height='500'></p></div>","49","","","","","","","","","","","","","","","","","","","","","","",""
"","html-keyboard-response","21","137304","0.0-21.0","""event"",""trial"",""time""
""fullscreenenter"",""0"",""4212""
","
","
","""event"",""trial"",""time""
""fullscreenenter"",""0"",""4212""
","
","null","<div class='center'><p><img src='run_exp/static/images/tutorial/blue_win.png' height='500'></p></div>","null","","","","","","","","","","","","","","","","","","","","","","",""
"","html-keyboard-response","22","137951","0.0-22.0","""event"",""trial"",""time""
""fullscreenenter"",""0"",""4212""
","
","
","""event"",""trial"",""time""
""fullscreenenter"",""0"",""4212""
","
","642.2000000001863","<div class='center'><img src='run_exp/static/images/tutorial/blue.png' height='500'></p></div>","49","","","","","","","","","","","","","","","","","","","","","","",""
"","html-keyboard-response","23","139455","0.0-23.0","""event"",""trial"",""time""
""fullscreenenter"",""0"",""4212""
","
","
","""event"",""trial"",""time""
""fullscreenenter"",""0"",""4212""
","
","null","<div class='center'><p><img src='run_exp/static/images/tutorial/blue_win.png' height='500'></p></div>","null","","","","","","","","","","","","","","","","","","","","","","",""
"","html-keyboard-response","24","139871","0.0-24.0","""event"",""trial"",""time""
""fullscreenenter"",""0"",""4212""
","
","
","""event"",""trial"",""time""
""fullscreenenter"",""0"",""4212""
","
","411.29999999981374","<div class='center'><img src='run_exp/static/images/tutorial/blue.png' height='500'></p></div>","49","","","","","","","","","","","","","","","","","","","","","","",""
"","html-keyboard-response","25","141377","0.0-25.0","""event"",""trial"",""time""
""fullscreenenter"",""0"",""4212""
","
","
","""event"",""trial"",""time""
""fullscreenenter"",""0"",""4212""
","
","null","<div class='center'><p><img src='run_exp/static/images/tutorial/blue_no_win.png' height='500'></p></div>","null","","","","","","","","","","","","","","","","","","","","","","",""
"","html-keyboard-response","26","142174","0.0-26.0","""event"",""trial"",""time""
""fullscreenenter"",""0"",""4212""
","
","
","""event"",""trial"",""time""
""fullscreenenter"",""0"",""4212""
","
","791.5999999996275","<div class='center'><img src='run_exp/static/images/tutorial/blue.png' height='500'></p></div>","49","","","","","","","","","","","","","","","","","","","","","","",""
"","html-keyboard-response","27","143680","0.0-27.0","""event"",""trial"",""time""
""fullscreenenter"",""0"",""4212""
","
","
","""event"",""trial"",""time""
""fullscreenenter"",""0"",""4212""
","
","null","<div class='center'><p><img src='run_exp/static/images/tutorial/blue_win.png' height='500'></p></div>","null","","","","","","","","","","","","","","","","","","","","","","",""
"","html-keyboard-response","28","145830","0.0-28.0","""event"",""trial"",""time""
""fullscreenenter"",""0"",""4212""
","
","
","""event"",""trial"",""time""
""fullscreenenter"",""0"",""4212""
","
","2146.2000000001863","<div class='center'><img src='run_exp/static/images/tutorial/blue.png' height='500'></p></div>","49","","","","","","","","","","","","","","","","","","","","","","",""
"","html-keyboard-response","29","147335","0.0-29.0","""event"",""trial"",""time""
""fullscreenenter"",""0"",""4212""
","
","
","""event"",""trial"",""time""
""fullscreenenter"",""0"",""4212""
","
","null","<div class='center'><p><img src='run_exp/static/images/tutorial/blue_win.png' height='500'></p></div>","null","","","","","","","","","","","","","","","","","","","","","","",""
"","instruc6","30","152958","0.0-30.0","""event"",""trial"",""time""
""fullscreenenter"",""0"",""4212""
","
","
","""event"",""trial"",""time""
""fullscreenenter"",""0"",""4212""
","
","null","run_exp/static/audio/clip_6_blue_beard_outcome.m4a","null","","","","","<div class='center'><p> See, he succeeded in robbing the ships most of the time but not every time. </p></div>","","","","","","","","","","","","","","","","","",""
"","html-keyboard-response","31","154269","0.0-31.0","""event"",""trial"",""time""
""fullscreenenter"",""0"",""4212""
","
","
","""event"",""trial"",""time""
""fullscreenenter"",""0"",""4212""
","
","1301","<div class='center'><p> See, he succeeded in robbing the ships most of the time but not every time. </p><p><b>[Press the space bar to continue]</b></p></div>","32","","","","","","","","","","","","","","","","","","","","","","",""
"","audio-keyboard-response","32","170462","0.0-32.0","""event"",""trial"",""time""
""fullscreenenter"",""0"",""4212""
","
","
","""event"",""trial"",""time""
""fullscreenenter"",""0"",""4212""
","
","16186.800000000745","run_exp/static/audio/clip_7_pick_pirate.m4a","51","","","","","","","","","","","","","","","","","","","","","","",""
"","audio-keyboard-response","33","174401","0.0-33.0-0.0","""event"",""trial"",""time""
""fullscreenenter"",""0"",""4212""
","
","
","""event"",""trial"",""time""
""fullscreenenter"",""0"",""4212""
","
","3928.7999999998137","run_exp/static/audio/clip_8_chosen_pirate_win.m4a","32","","","","","","","","","","","","","","","","","","","","","","",""
"","audio-keyboard-response","34","176805","0.0-33.0-1.0","""event"",""trial"",""time""
""fullscreenenter"",""0"",""4212""
","
","
","""event"",""trial"",""time""
""fullscreenenter"",""0"",""4212""
","
","2399.199999999255","run_exp/static/audio/clip_9_pick_a_pirate_again.m4a","50","","","","","","","","","","","","","","","","","","","","","","",""
"","audio-keyboard-response","35","180999","0.0-34.0-0.0","""event"",""trial"",""time""
""fullscreenenter"",""0"",""4212""
","
","
","""event"",""trial"",""time""
""fullscreenenter"",""0"",""4212""
","
","4185.700000000186","run_exp/static/audio/clip_10_chosen_pirate_loss.m4a","32","","","","","","","","","","","","","","","","","","","","","","",""
"","instruc9","36","186767","0.0-35.0-0.0","""event"",""trial"",""time""
""fullscreenenter"",""0"",""4212""
","
","
","""event"",""trial"",""time""
""fullscreenenter"",""0"",""4212""
","
","null","run_exp/static/audio/clip_11_time_out.m4a","null","","","","","<div class='center'><p>If you don’t make your choice fast enough, you’ll have to wait a few seconds before you can make another one. </p><p><img src='run_exp/static/images/miscellaneous/hurry_up.png' height='500'></p></div>","","","","","","","","","","","","","","","","","",""
"","html-keyboard-response","37","187401","0.0-35.0-1.0","""event"",""trial"",""time""
""fullscreenenter"",""0"",""4212""
","
","
","""event"",""trial"",""time""
""fullscreenenter"",""0"",""4212""
","
","627.5999999996275","<div class='center'><p>If you don’t make your choice fast enough, you’ll have to wait a few seconds before you can make another one. </p><p><img src='run_exp/static/images/miscellaneous/hurry_up.png' height='500'></p><p><b>[Press the space bar to continue]</b></p></div>","32","","","","","","","","","","","","","","","","","","","","","","",""
"","instruc10","38","226796","0.0-35.0-2.0","""event"",""trial"",""time""
""fullscreenenter"",""0"",""4212""
","
","
","""event"",""trial"",""time""
""fullscreenenter"",""0"",""4212""
","
","null","run_exp/static/audio/clip_12_probe.m4a","null","","","","","<div class='center'><p>Once you've chosen a pirate, you’ll be shown the ship they are robbing. You will never rob the same ship twice. Ships can be told apart from one another by the image on them. These are the goods that they sell. See, this ship has a travel mug on it. </p><p> You’ll have to remember which island you saw each ship on. You will win more gold coins and hence more bonus money if you remember correctly! To help you remember, you can imagine a story. For example, here, you could imagine a mug full of water in the desert. Or, as another example, if on the forest island, your pirate robbed a ship with an apple on it, you could imagine an apple falling from a tree in the forest. </p><p><img src='run_exp/static/images/tutorial/example_probe.png' height='500'></p></div>","","","","","","","","","","","","","","","","","",""
"","html-keyboard-response","39","231399","0.0-35.0-3.0","""event"",""trial"",""time""
""fullscreenenter"",""0"",""4212""
","
","
","""event"",""trial"",""time""
""fullscreenenter"",""0"",""4212""
","
","4595.5","<div class='center'><p>Once you've chosen a pirate, you’ll be shown the ship they are robbing. You will never rob the same ship twice. Ships can be told apart from one another by the image on them. These are the goods that they sell. See, this ship has a travel mug on it. </p><p> You’ll have to remember which island you saw each ship on. You will win more gold coins and hence more bonus money if you remember correctly! To help you remember, you can imagine a story. For example, here, you could imagine a mug full of water in the desert. Or, as another example, if on the forest island, your pirate robbed a ship with an apple on it, you could imagine an apple falling from a tree in the forest. </p><p><img src='run_exp/static/images/tutorial/example_probe.png' height='500'></p><p><b>[Press the space bar to continue]</b></p></div>","32","","","","","","","","","","","","","","","","","","","","","","",""
"","instruc11","40","247972","0.0-35.0-4.0","""event"",""trial"",""time""
""fullscreenenter"",""0"",""4212""
","
","
","""event"",""trial"",""time""
""fullscreenenter"",""0"",""4212""
","
","null","run_exp/static/audio/clip_13_changepoint.m4a","null","","","","","<div class='center'><p>How successful a pirate is at robbing ships will depend on the island you’re on.</p><p> A pirate may have visited this island many times before and gained a lot of practice robbing ships there.</p><p>So, they’re more likely to be successful than a pirate who has never visited the island before.</p></div>","","","","","","","","","","","","","","","","","",""
"","html-keyboard-response","41","249416","0.0-35.0-5.0","""event"",""trial"",""time""
""fullscreenenter"",""0"",""4212""
","
","
","""event"",""trial"",""time""
""fullscreenenter"",""0"",""4212""
","
","1439.300000000745","<div class='center'><p>How successful a pirate is at robbing ships will depend on the island you’re on.</p><p> A pirate may have visited this island many times before and gained a lot of practice robbing ships there.</p><p>So, they’re more likely to be successful than a pirate who has never visited the island before.</p><p><b>[Press the space bar to continue]</b></p></div>","32","","","","","","","","","","","","","","","","","","","","","","",""
"","instruc12","42","290699","0.0-35.0-6.0","""event"",""trial"",""time""
""fullscreenenter"",""0"",""4212""
","
","
","""event"",""trial"",""time""
""fullscreenenter"",""0"",""4212""
","
","null","run_exp/static/audio/clip_14_drift.m4a","null","","","","","<div class='center'><p>How successful a pirate is at robbing ships can also change over the time spent on the island. </p><p> Ships may hear from islanders about the pirates coming and will improve their protections against the attack. This may make it harder to rob them.</p><p> Ships may also become lazy and weaken the strength of their protections. This may make it easier to rob them.</p><br><p>Things are always changing on the high seas! So, try your best to pay attention!</p><p><img src='run_exp/static/images/tutorial/contingency.png' height='500'></p></div>","","","","","","","","","","","","","","","","","",""
"","html-keyboard-response","43","294784","0.0-35.0-7.0","""event"",""trial"",""time""
""fullscreenenter"",""0"",""4212""
","
","
","""event"",""trial"",""time""
""fullscreenenter"",""0"",""4212""
","
","4078.100000000559","<div class='center'><p>How successful a pirate is at robbing ships can also change over the time spent on the island. </p><p> Ships may hear from islanders about the pirates coming and will improve their protections against the attack. This may make it harder to rob them.</p><p> Ships may also become lazy and weaken the strength of their protections. This may make it easier to rob them.</p><br><p>Things are always changing on the high seas! So, try your best to pay attention!</p><p><img src='run_exp/static/images/tutorial/contingency.png' height='500'></p><p><b>[Press the space bar to continue]</b></p></div>","32","","","","","","","","","","","","","","","","","","","","","","",""
"","instruc13","44","330267","0.0-35.0-8.0","""event"",""trial"",""time""
""fullscreenenter"",""0"",""4212""
","
","
","""event"",""trial"",""time""
""fullscreenenter"",""0"",""4212""
","
","null","run_exp/static/audio/clip_15_summary.m4a","null","","","","","<div class='center'><p>Let's go over the instructions quickly again. You have two important things to do: </p><b><p> 1. Pick the pirate who is the best at robbing ships on the current island. </p></b><b><p> 2. Remember on which island a ship was robbed.</p> </b><p>The amount of bonus money you can win depends on both.</p><p><br><p>Let’s try a practice game. The game will start by showing you the pirates. First, pick a pirate using the <b> 1, 2, 3 </b> keys on your keyboard. When you are shown a ship, try to remember which island you’re on by making up a story.</p><p>This is just a practice game, so you’re not playing for money. </p><p> Good luck! This game will be very difficult but try your best!</p></div>","","","","","","","","","","","","","","","","","",""
"","html-keyboard-response","45","331762","0.0-35.0-9.0","""event"",""trial"",""time""
""fullscreenenter"",""0"",""4212""
","
","
","""event"",""trial"",""time""
""fullscreenenter"",""0"",""4212""
","
","1490.7000000001863","<div class='center'><p>Let's go over the instructions quickly again. You have two important things to do: </p><b><p> 1. Pick the pirate who is the best at robbing ships on the current island. </p></b><b><p> 2. Remember on which island a ship was robbed.</p> </b><p>The amount of bonus money you can win depends on both.</p><p><br><p>Let’s try a practice game. The game will start by showing you the pirates. First, pick a pirate using the <b> 1, 2, 3 </b> keys on your keyboard. When you are shown a ship, try to remember which island you’re on by making up a story.</p><p>This is just a practice game, so you’re not playing for money. </p><p> Good luck! This game will be very difficult but try your best!</p><p><b>[Press the space bar to continue]</b></p></div>","32","","","","","","","","","","","","","","","","","","","","","","",""
"","do_welcome","46","335781","0.0-35.0-10.0","""event"",""trial"",""time""
""fullscreenenter"",""0"",""4212""
","
","
","""event"",""trial"",""time""
""fullscreenenter"",""0"",""4212""
","
","null","","","","","","","","null","","","","","","","","","","","","","","","","",""
"","do_trial","47","341790","0.0-35.0-11.0","""event"",""trial"",""time""
""fullscreenenter"",""0"",""4212""
","
","
","""event"",""trial"",""time""
""fullscreenenter"",""0"",""4212""
","
","1484.1000000005588","","","","","","","","50","1,0,0","","","","","","","","","","","","","","","",""
"","html-keyboard-response","48","342798","0.0-36.0-0.0","""event"",""trial"",""time""
""fullscreenenter"",""0"",""4212""
","
","
","""event"",""trial"",""time""
""fullscreenenter"",""0"",""4212""
","
","null","<p></p>","null","","","","","","","","","","","","","","","","","","","","","","",""
"","do_trial","49","347793","0.0-36.0-1.0","""event"",""trial"",""time""
""fullscreenenter"",""0"",""4212""
","
","
","""event"",""trial"",""time""
""fullscreenenter"",""0"",""4212""
","
","467.5","","","","","","","","49","1,1,0","","","","","","","","","","","","","","","",""
"","html-keyboard-response","50","348800","0.0-37.0-0.0","""event"",""trial"",""time""
""fullscreenenter"",""0"",""4212""
","
","
","""event"",""trial"",""time""
""fullscreenenter"",""0"",""4212""
","
","null","<p></p>","null","","","","","","","","","","","","","","","","","","","","","","",""
"","do_trial","51","354162","0.0-37.0-1.0","""event"",""trial"",""time""
""fullscreenenter"",""0"",""4212""
","
","
","""event"",""trial"",""time""
""fullscreenenter"",""0"",""4212""
","
","839.7999999998137","","","","","","","","51","1,0,1","","","","","","","","","","","","","","","",""
"","html-keyboard-response","52","355169","0.0-38.0-0.0","""event"",""trial"",""time""
""fullscreenenter"",""0"",""4212""
","
","
","""event"",""trial"",""time""
""fullscreenenter"",""0"",""4212""
","
","null","<p></p>","null","","","","","","","","","","","","","","","","","","","","","","",""
"","do_trial","53","361826","0.0-38.0-1.0","""event"",""trial"",""time""
""fullscreenenter"",""0"",""4212""
","
","
","""event"",""trial"",""time""
""fullscreenenter"",""0"",""4212""
","
","2143.2999999998137","","","","","","","","51","0,1,0","","","","","","","","","","","","","","","",""
"","html-keyboard-response","54","362833","0.0-39.0-0.0","""event"",""trial"",""time""
""fullscreenenter"",""0"",""4212""
","
","
","""event"",""trial"",""time""
""fullscreenenter"",""0"",""4212""
","
","null","<p></p>","null","","","","","","","","","","","","","","","","","","","","","","",""
"","do_trial","55","368870","0.0-39.0-1.0","""event"",""trial"",""time""
""fullscreenenter"",""0"",""4212""
","
","
","""event"",""trial"",""time""
""fullscreenenter"",""0"",""4212""
","
","1515","","","","","","","","51","1,0,0","","","","","","","","","","","","","","","",""
"","do_bye","56","370387","0.0-40.0-0.0","""event"",""trial"",""time""
""fullscreenenter"",""0"",""4212""
","
","
","""event"",""trial"",""time""
""fullscreenenter"",""0"",""4212""
","
","null","","","","","","","","null","","","","","","","","","","","","","","","","",""
"","do_travel","57","379397","0.0-40.0-1.0","""event"",""trial"",""time""
""fullscreenenter"",""0"",""4212""
","
","
","""event"",""trial"",""time""
""fullscreenenter"",""0"",""4212""
","
","null","","","","","","","","null","","","","","","","","","","","","","","","","",""
"","do_welcome","58","383415","0.0-40.0-2.0","""event"",""trial"",""time""
""fullscreenenter"",""0"",""4212""
","
","
","""event"",""trial"",""time""
""fullscreenenter"",""0"",""4212""
","
","null","","","","","","","","null","","","","","","","","","","","","","","","","",""
"","do_trial","59","390394","0.0-40.0-3.0","""event"",""trial"",""time""
""fullscreenenter"",""0"",""4212""
","
","
","""event"",""trial"",""time""
""fullscreenenter"",""0"",""4212""
","
","2460.7000000001863","","","","","","","","49","1,0,0","","","","","","","","","","","","","","","",""
"","html-keyboard-response","60","391398","0.0-41.0-0.0","""event"",""trial"",""time""
""fullscreenenter"",""0"",""4212""
","
","
","""event"",""trial"",""time""
""fullscreenenter"",""0"",""4212""
","
","null","<p></p>","null","","","","","","","","","","","","","","","","","","","","","","",""
"","do_trial","61","397302","0.0-41.0-1.0","""event"",""trial"",""time""
""fullscreenenter"",""0"",""4212""
","
","
","""event"",""trial"",""time""
""fullscreenenter"",""0"",""4212""
","
","1380.699999999255","","","","","","","","50","1,0,1","","","","","","","","","","","","","","","",""
"","html-keyboard-response","62","398311","0.0-42.0-0.0","""event"",""trial"",""time""
""fullscreenenter"",""0"",""4212""
","
","
","""event"",""trial"",""time""
""fullscreenenter"",""0"",""4212""
","
","null","<p></p>","null","","","","","","","","","","","","","","","","","","","","","","",""
"","do_trial","63","403394","0.0-42.0-1.0","""event"",""trial"",""time""
""fullscreenenter"",""0"",""4212""
","
","
","""event"",""trial"",""time""
""fullscreenenter"",""0"",""4212""
","
","557.0999999996275","","","","","","","","51","1,1,0","","","","","","","","","","","","","","","",""
"","html-keyboard-response","64","404399","0.0-43.0-0.0","""event"",""trial"",""time""
""fullscreenenter"",""0"",""4212""
","
","
","""event"",""trial"",""time""
""fullscreenenter"",""0"",""4212""
","
","null","<p></p>","null","","","","","","","","","","","","","","","","","","","","","","",""
"","do_trial","65","409743","0.0-43.0-1.0","""event"",""trial"",""time""
""fullscreenenter"",""0"",""4212""
","
","
","""event"",""trial"",""time""
""fullscreenenter"",""0"",""4212""
","
","823.6000000005588","","","","","","","","49","0,0,1","","","","","","","","","","","","","","","",""
"","html-keyboard-response","66","410748","0.0-44.0-0.0","""event"",""trial"",""time""
""fullscreenenter"",""0"",""4212""
","
","
","""event"",""trial"",""time""
""fullscreenenter"",""0"",""4212""
","
","null","<p></p>","null","","","","","","","","","","","","","","","","","","","","","","",""
"","do_trial","67","416230","0.0-44.0-1.0","""event"",""trial"",""time""
""fullscreenenter"",""0"",""4212""
","
","
","""event"",""trial"",""time""
""fullscreenenter"",""0"",""4212""
","
","960.4000000003725","","","","","","","","50","1,0,1","","","","","","","","","","","","","","","",""
"","html-keyboard-response","68","416431","0.0-45.0-0.0","""event"",""trial"",""time""
""fullscreenenter"",""0"",""4212""
","
","
","""event"",""trial"",""time""
""fullscreenenter"",""0"",""4212""
","
","193","<div class='center'><p><img src='run_exp/static/images/tutorial/prac_best_pirate.png'  height='500'></p></div>","51","","","","","","","","","","","","","","","","","","","","","","",""
"","html-keyboard-response","69","420034","0.0-46.0-0.0","""event"",""trial"",""time""
""fullscreenenter"",""0"",""4212""
","
","
","""event"",""trial"",""time""
""fullscreenenter"",""0"",""4212""
","
","3598.0999999996275","<div class='center'><p>That's incorrect! Red beard was the best.</p><p><b>[Press the space bar to continue]</b></p></div>","32","","","","","","","","","","","","","","","","","","","","","","",""
"","html-keyboard-response","70","427092","0.0-46.0-1.0","""event"",""trial"",""time""
""fullscreenenter"",""0"",""4212""
","
","
","""event"",""trial"",""time""
""fullscreenenter"",""0"",""4212""
","
","7053.199999999255","<div class='center'><p><img src='run_exp/static/images/tutorial/prac_source.png'  height='500'></p></div>","50","","","","","","","","","","","","","","","","","","","","","","",""
"","html-keyboard-response","71","429606","0.0-47.0-0.0","""event"",""trial"",""time""
""fullscreenenter"",""0"",""4212""
","
","
","""event"",""trial"",""time""
""fullscreenenter"",""0"",""4212""
","
","2508.5","<div class='center'><p>That's correct! You saw this ship on the cavern island.</p><p><b>[Press the space bar to continue]</b></p></div>","32","","","","","","","","","","","","","","","","","","","","","","",""
"","quiz_beginning","72","440978","0.0-47.0-1.0","""event"",""trial"",""time""
""fullscreenenter"",""0"",""4212""
","
","
","""event"",""trial"",""time""
""fullscreenenter"",""0"",""4212""
","
","null","run_exp/static/audio/clip_16_quiz_intro.m4a","null","","","","","<div class='center'><p>Good job on the practice game! Now, you will be asked some true or false questions to make sure you really understand the rules of the game.</p><p> Press <b>'1'</b> on the keyboard for true and press <b>'2'</b> for false.</p></div>","","","","","","","","","","","","","","","","","",""
"","audio-keyboard-response","73","449335","0.0-47.0-2.0","""event"",""trial"",""time""
""fullscreenenter"",""0"",""4212""
","
","
","""event"",""trial"",""time""
""fullscreenenter"",""0"",""4212""
","
","8347.899999999441","run_exp/static/audio/clip_17_q1.m4a","50","","","","","","","","","","","","","","","","","","","","","","",""
"","q1_err","74","454448","0.0-48.0-0.0","""event"",""trial"",""time""
""fullscreenenter"",""0"",""4212""
","
","
","""event"",""trial"",""time""
""fullscreenenter"",""0"",""4212""
","
","null","run_exp/static/audio/clip_19_wrong_q1.m4a","null","","","","","<div class='center'><p>That’s incorrect. You win bonus money by collecting gold coins.</p></div>","","","","","","","","","","","","","","","","","",""
"","html-keyboard-response","75","457023","0.0-48.0-1.0","""event"",""trial"",""time""
""fullscreenenter"",""0"",""4212""
","
","
","""event"",""trial"",""time""
""fullscreenenter"",""0"",""4212""
","
","2570.5","<div class='center'><p>That’s incorrect. You win bonus money by collecting gold coins.</p><p><b>[Press the space bar to continue]</b></p></div>","32","","","","","","","","","","","","","","","","","","","","","","",""
"","audio-keyboard-response","76","464660","0.0-48.0-2.0","""event"",""trial"",""time""
""fullscreenenter"",""0"",""4212""
","
","
","""event"",""trial"",""time""
""fullscreenenter"",""0"",""4212""
","
","7629.600000000559","run_exp/static/audio/clip_20_q2.m4a","50","","","","","","","","","","","","","","","","","","","","","","",""
"","correct","77","467356","0.0-49.0-0.0","""event"",""trial"",""time""
""fullscreenenter"",""0"",""4212""
","
","
","""event"",""trial"",""time""
""fullscreenenter"",""0"",""4212""
","
","null","run_exp/static/audio/clip_18_correct.m4a","null","","","","","<div class='center'><p>That's correct!</p></div>","","","","","","","","","","","","","","","","","",""
"","html-keyboard-response","78","467965","0.0-49.0-1.0","""event"",""trial"",""time""
""fullscreenenter"",""0"",""4212""
","
","
","""event"",""trial"",""time""
""fullscreenenter"",""0"",""4212""
","
","604.7999999998137","<div class='center'><p>That's correct!</p><p><b>[Press the space bar to continue]</b></p></div>","32","","","","","","","","","","","","","","","","","","","","","","",""
"","audio-keyboard-response","79","474504","0.0-49.0-2.0","""event"",""trial"",""time""
""fullscreenenter"",""0"",""4212""
","
","
","""event"",""trial"",""time""
""fullscreenenter"",""0"",""4212""
","
","6534.5999999996275","run_exp/static/audio/clip_22_q3.m4a","50","","","","","","","","","","","","","","","","","","","","","","",""
"","correct","80","477201","0.0-50.0-0.0","""event"",""trial"",""time""
""fullscreenenter"",""0"",""4212""
","
","
","""event"",""trial"",""time""
""fullscreenenter"",""0"",""4212""
","
","null","run_exp/static/audio/clip_18_correct.m4a","null","","","","","<div class='center'><p>That's correct!</p></div>","","","","","","","","","","","","","","","","","",""
"","html-keyboard-response","81","477805","0.0-50.0-1.0","""event"",""trial"",""time""
""fullscreenenter"",""0"",""4212""
","
","
","""event"",""trial"",""time""
""fullscreenenter"",""0"",""4212""
","
","600.1000000005588","<div class='center'><p>That's correct!</p><p><b>[Press the space bar to continue]</b></p></div>","32","","","","","","","","","","","","","","","","","","","","","","",""
"","audio-keyboard-response","82","482498","0.0-50.0-2.0","""event"",""trial"",""time""
""fullscreenenter"",""0"",""4212""
","
","
","""event"",""trial"",""time""
""fullscreenenter"",""0"",""4212""
","
","4686.9000000003725","run_exp/static/audio/clip_24_q4.m4a","49","","","","","","","","","","","","","","","","","","","","","","",""
"","correct","83","485189","0.0-51.0-0.0","""event"",""trial"",""time""
""fullscreenenter"",""0"",""4212""
","
","
","""event"",""trial"",""time""
""fullscreenenter"",""0"",""4212""
","
","null","run_exp/static/audio/clip_18_correct.m4a","null","","","","","<div class='center'><p>That's correct!</p></div>","","","","","","","","","","","","","","","","","",""
"","html-keyboard-response","84","485877","0.0-51.0-1.0","""event"",""trial"",""time""
""fullscreenenter"",""0"",""4212""
","
","
","""event"",""trial"",""time""
""fullscreenenter"",""0"",""4212""
","
","684.3000000007451","<div class='center'><p>That's correct!</p><p><b>[Press the space bar to continue]</b></p></div>","32","","","","","","","","","","","","","","","","","","","","","","",""
"","q_all_err","85","492248","0.0-52.0-0.0","""event"",""trial"",""time""
""fullscreenenter"",""0"",""4212""
","
","
","""event"",""trial"",""time""
""fullscreenenter"",""0"",""4212""
","
","null","run_exp/static/audio/clip_26_quiz_redo.m4a","null","","","","","<div class='center'><p>Oops, you missed some questions. Now that you’ve heard the correct answers. Try the quiz again! </p></div>","","","","","","","","","","","","","","","","","",""
"","html-keyboard-response","86","493157","0.0-52.0-1.0","""event"",""trial"",""time""
""fullscreenenter"",""0"",""4212""
","
","
","""event"",""trial"",""time""
""fullscreenenter"",""0"",""4212""
","
","904.3999999994412","<div class='center'><p>Oops, you missed some questions. Now that you’ve heard the correct answers. Try the quiz again! </p><p><b>[Press the space bar to continue]</b></p></div>","32","","","","","","","","","","","","","","","","","","","","","","",""
"","audio-keyboard-response","87","496912","0.0-52.0-2.0","""event"",""trial"",""time""
""fullscreenenter"",""0"",""4212""
","
","
","""event"",""trial"",""time""
""fullscreenenter"",""0"",""4212""
","
","3750","run_exp/static/audio/clip_17_q1.m4a","49","","","","","","","","","","","","","","","","","","","","","","",""
"","correct","88","499584","0.0-53.0-0.0","""event"",""trial"",""time""
""fullscreenenter"",""0"",""4212""
","
","
","""event"",""trial"",""time""
""fullscreenenter"",""0"",""4212""
","
","null","run_exp/static/audio/clip_18_correct.m4a","null","","","","","<div class='center'><p>That's correct!</p></div>","","","","","","","","","","","","","","","","","",""
"","html-keyboard-response","89","500214","0.0-53.0-1.0","""event"",""trial"",""time""
""fullscreenenter"",""0"",""4212""
","
","
","""event"",""trial"",""time""
""fullscreenenter"",""0"",""4212""
","
","625.6999999992549","<div class='center'><p>That's correct!</p><p><b>[Press the space bar to continue]</b></p></div>","32","","","","","","","","","","","","","","","","","","","","","","",""
"","audio-keyboard-response","90","500674","0.0-53.0-2.0","""event"",""trial"",""time""
""fullscreenenter"",""0"",""4212""
","
","
","""event"",""trial"",""time""
""fullscreenenter"",""0"",""4212""
","
","453.29999999981374","run_exp/static/audio/clip_20_q2.m4a","49","","","","","","","","","","","","","","","","","","","","","","",""
"","q2_err","91","506364","0.0-54.0-0.0","""event"",""trial"",""time""
""fullscreenenter"",""0"",""4212""
","
","
","""event"",""trial"",""time""
""fullscreenenter"",""0"",""4212""
","
","null","run_exp/static/audio/clip_21_wrong_q2.m4a","null","","","","","<div class='center'><p>That’s incorrect. Which pirate is the best may change during your time on the island.</p></div>","","","","","","","","","","","","","","","","","",""
"","html-keyboard-response","92","506878","0.0-54.0-1.0","""event"",""trial"",""time""
""fullscreenenter"",""0"",""4212""
","
","
","""event"",""trial"",""time""
""fullscreenenter"",""0"",""4212""
","
","510.30000000074506","<div class='center'><p>That’s incorrect. Which pirate is the best may change during your time on the island.</p><p><b>[Press the space bar to continue]</b></p></div>","32","","","","","","","","","","","","","","","","","","","","","","",""
"","audio-keyboard-response","93","511629","0.0-54.0-2.0","""event"",""trial"",""time""
""fullscreenenter"",""0"",""4212""
","
","
","""event"",""trial"",""time""
""fullscreenenter"",""0"",""4212""
","
","4745","run_exp/static/audio/clip_22_q3.m4a","50","","","","","","","","","","","","","","","","","","","","","","",""
"","correct","94","514261","0.0-55.0-0.0","""event"",""trial"",""time""
""fullscreenenter"",""0"",""4212""
","
","
","""event"",""trial"",""time""
""fullscreenenter"",""0"",""4212""
","
","null","run_exp/static/audio/clip_18_correct.m4a","null","","","","","<div class='center'><p>That's correct!</p></div>","","","","","","","","","","","","","","","","","",""
"","html-keyboard-response","95","514976","0.0-55.0-1.0","""event"",""trial"",""time""
""fullscreenenter"",""0"",""4212""
","
","
","""event"",""trial"",""time""
""fullscreenenter"",""0"",""4212""
","
","711.7000000001863","<div class='center'><p>That's correct!</p><p><b>[Press the space bar to continue]</b></p></div>","32","","","","","","","","","","","","","","","","","","","","","","",""
"","audio-keyboard-response","96","519905","0.0-55.0-2.0","""event"",""trial"",""time""
""fullscreenenter"",""0"",""4212""
","
","
","""event"",""trial"",""time""
""fullscreenenter"",""0"",""4212""
","
","4924","run_exp/static/audio/clip_24_q4.m4a","49","","","","","","","","","","","","","","","","","","","","","","",""
"","correct","97","522527","0.0-56.0-0.0","""event"",""trial"",""time""
""fullscreenenter"",""0"",""4212""
","
","
","""event"",""trial"",""time""
""fullscreenenter"",""0"",""4212""
","
","null","run_exp/static/audio/clip_18_correct.m4a","null","","","","","<div class='center'><p>That's correct!</p></div>","","","","","","","","","","","","","","","","","",""
"","html-keyboard-response","98","523044","0.0-56.0-1.0","""event"",""trial"",""time""
""fullscreenenter"",""0"",""4212""
","
","
","""event"",""trial"",""time""
""fullscreenenter"",""0"",""4212""
","
","514.1999999992549","<div class='center'><p>That's correct!</p><p><b>[Press the space bar to continue]</b></p></div>","32","","","","","","","","","","","","","","","","","","","","","","",""
"","q_all_err","99","529400","0.0-57.0-0.0","""event"",""trial"",""time""
""fullscreenenter"",""0"",""4212""
","
","
","""event"",""trial"",""time""
""fullscreenenter"",""0"",""4212""
","
","null","run_exp/static/audio/clip_26_quiz_redo.m4a","null","","","","","<div class='center'><p>Oops, you missed some questions. Now that you’ve heard the correct answers. Try the quiz again! </p></div>","","","","","","","","","","","","","","","","","",""
"","html-keyboard-response","100","530369","0.0-57.0-1.0","""event"",""trial"",""time""
""fullscreenenter"",""0"",""4212""
","
","
","""event"",""trial"",""time""
""fullscreenenter"",""0"",""4212""
","
","966.7999999998137","<div class='center'><p>Oops, you missed some questions. Now that you’ve heard the correct answers. Try the quiz again! </p><p><b>[Press the space bar to continue]</b></p></div>","32","","","","","","","","","","","","","","","","","","","","","","",""
"","audio-keyboard-response","101","533513","0.0-57.0-2.0","""event"",""trial"",""time""
""fullscreenenter"",""0"",""4212""
","
","
","""event"",""trial"",""time""
""fullscreenenter"",""0"",""4212""
","
","3138.2000000001863","run_exp/static/audio/clip_17_q1.m4a","49","","","","","","","","","","","","","","","","","","","","","","",""
"","correct","102","536184","0.0-58.0-0.0","""event"",""trial"",""time""
""fullscreenenter"",""0"",""4212""
","
","
","""event"",""trial"",""time""
""fullscreenenter"",""0"",""4212""
","
","null","run_exp/static/audio/clip_18_correct.m4a","null","","","","","<div class='center'><p>That's correct!</p></div>","","","","","","","","","","","","","","","","","",""
"","html-keyboard-response","103","537360","0.0-58.0-1.0","""event"",""trial"",""time""
""fullscreenenter"",""0"",""4212""
","
","
","""event"",""trial"",""time""
""fullscreenenter"",""0"",""4212""
","
","1170.9000000003725","<div class='center'><p>That's correct!</p><p><b>[Press the space bar to continue]</b></p></div>","32","","","","","","","","","","","","","","","","","","","","","","",""
"","audio-keyboard-response","104","546667","0.0-58.0-2.0","""event"",""trial"",""time""
""fullscreenenter"",""0"",""4212""
","
","
","""event"",""trial"",""time""
""fullscreenenter"",""0"",""4212""
","
","9301.300000000745","run_exp/static/audio/clip_20_q2.m4a","50","","","","","","","","","","","","","","","","","","","","","","",""
"","correct","105","549278","0.0-59.0-0.0","""event"",""trial"",""time""
""fullscreenenter"",""0"",""4212""
","
","
","""event"",""trial"",""time""
""fullscreenenter"",""0"",""4212""
","
","null","run_exp/static/audio/clip_18_correct.m4a","null","","","","","<div class='center'><p>That's correct!</p></div>","","","","","","","","","","","","","","","","","",""
"","html-keyboard-response","106","550528","0.0-59.0-1.0","""event"",""trial"",""time""
""fullscreenenter"",""0"",""4212""
","
","
","""event"",""trial"",""time""
""fullscreenenter"",""0"",""4212""
","
","1247.4000000003725","<div class='center'><p>That's correct!</p><p><b>[Press the space bar to continue]</b></p></div>","32","","","","","","","","","","","","","","","","","","","","","","",""
"","audio-keyboard-response","107","555295","0.0-59.0-2.0","""event"",""trial"",""time""
""fullscreenenter"",""0"",""4212""
","
","
","""event"",""trial"",""time""
""fullscreenenter"",""0"",""4212""
","
","4762.899999999441","run_exp/static/audio/clip_22_q3.m4a","50","","","","","","","","","","","","","","","","","","","","","","",""
"","correct","108","558008","0.0-60.0-0.0","""event"",""trial"",""time""
""fullscreenenter"",""0"",""4212""
","
","
","""event"",""trial"",""time""
""fullscreenenter"",""0"",""4212""
","
","null","run_exp/static/audio/clip_18_correct.m4a","null","","","","","<div class='center'><p>That's correct!</p></div>","","","","","","","","","","","","","","","","","",""
"","html-keyboard-response","109","558442","0.0-60.0-1.0","""event"",""trial"",""time""
""fullscreenenter"",""0"",""4212""
","
","
","""event"",""trial"",""time""
""fullscreenenter"",""0"",""4212""
","
","431","<div class='center'><p>That's correct!</p><p><b>[Press the space bar to continue]</b></p></div>","32","","","","","","","","","","","","","","","","","","","","","","",""
"","audio-keyboard-response","110","562873","0.0-60.0-2.0","""event"",""trial"",""time""
""fullscreenenter"",""0"",""4212""
","
","
","""event"",""trial"",""time""
""fullscreenenter"",""0"",""4212""
","
","4428.299999999814","run_exp/static/audio/clip_24_q4.m4a","49","","","","","","","","","","","","","","","","","","","","","","",""
"","correct","111","565722","0.0-61.0-0.0","""event"",""trial"",""time""
""fullscreenenter"",""0"",""4212""
","
","
","""event"",""trial"",""time""
""fullscreenenter"",""0"",""4212""
","
","null","run_exp/static/audio/clip_18_correct.m4a","null","","","","","<div class='center'><p>That's correct!</p></div>","","","","","","","","","","","","","","","","","",""
"","html-keyboard-response","112","566226","0.0-61.0-1.0","""event"",""trial"",""time""
""fullscreenenter"",""0"",""4212""
","
","
","""event"",""trial"",""time""
""fullscreenenter"",""0"",""4212""
","
","496.09999999962747","<div class='center'><p>That's correct!</p><p><b>[Press the space bar to continue]</b></p></div>","32","","","","","","","","","","","","","","","","","","","","","","",""
"","q_all_corr","113","574916","0.0-62.0-0.0","""event"",""trial"",""time""
""fullscreenenter"",""0"",""4212""
","
","
","""event"",""trial"",""time""
""fullscreenenter"",""0"",""4212""
","
","null","run_exp/static/audio/clip_27_quiz_all_correct.m4a","null","","","","","<div class='center'><p>Good job! You’re now ready to move on to the real game! Remember this game will be difficult but don't get discouraged and try your best!</p></div>","","","","","","","","","","","","","","","","","",""
"","html-keyboard-response","114","575559","0.0-62.0-1.0","""event"",""trial"",""time""
""fullscreenenter"",""0"",""4212""
","
","
","""event"",""trial"",""time""
""fullscreenenter"",""0"",""4212""
","
","633.9000000003725","<div class='center'><p>Good job! You’re now ready to move on to the real game! Remember this game will be difficult but don't get discouraged and try your best!</p><p><b>[Press the space bar to continue]</b></p></div>","32","","","","","","","","","","","","","","","","","","","","","","",""
"","do_welcome","115","579574","0.0-63.0-0.0","""event"",""trial"",""time""
""fullscreenenter"",""0"",""4212""
","
","
","""event"",""trial"",""time""
""fullscreenenter"",""0"",""4212""
","
","null","","","","","","","","null","","","","","","","","","","","","","","","","",""
"","do_trial","116","586052","0.0-64.0-0.0","""event"",""trial"",""time""
""fullscreenenter"",""0"",""4212""
","
","
","""event"",""trial"",""time""
""fullscreenenter"",""0"",""4212""
","
","1829.4000000003725","","","","","","","","49","0,0,0","0","coast","0","probe-130","0.6","0.3","0.1","0","","","","","","","",""
"","html-keyboard-response","117","587058","0.0-64.0-1.0","""event"",""trial"",""time""
""fullscreenenter"",""0"",""4212""
","
","
","""event"",""trial"",""time""
""fullscreenenter"",""0"",""4212""
","
","null","<p></p>","null","","","","","","","","","","","","","","","","","","","","","","",""
"","do_trial","118","592037","0.0-65.0-0.0","""event"",""trial"",""time""
""fullscreenenter"",""0"",""4212""
","
","
","""event"",""trial"",""time""
""fullscreenenter"",""0"",""4212""
","
","348.29999999981374","","","","","","","","50","1,1,0","0","coast","1","probe-66","0.6782670068148321","0.36841356483979804","0.06993877278147367","1","","","","","","","",""
"","html-keyboard-response","119","593046","0.0-65.0-1.0","""event"",""trial"",""time""
""fullscreenenter"",""0"",""4212""
","
","
","""event"",""trial"",""time""
""fullscreenenter"",""0"",""4212""
","
","null","<p></p>","null","","","","","","","","","","","","","","","","","","","","","","",""
"","do_trial","120","598753","0.0-66.0-0.0","""event"",""trial"",""time""
""fullscreenenter"",""0"",""4212""
","
","
","""event"",""trial"",""time""
""fullscreenenter"",""0"",""4212""
","
","1081.7000000001863","","","","","","","","51","1,0,0","0","coast","2","probe-171","0.7134686202138449","0.28556980409507393","0.07090451062198902","0","","","","","","","",""
"","html-keyboard-response","121","599759","0.0-66.0-1.0","""event"",""trial"",""time""
""fullscreenenter"",""0"",""4212""
","
","
","""event"",""trial"",""time""
""fullscreenenter"",""0"",""4212""
","
","null","<p></p>","null","","","","","","","","","","","","","","","","","","","","","","",""
"","do_trial","122","605891","0.0-67.0-0.0","""event"",""trial"",""time""
""fullscreenenter"",""0"",""4212""
","
","
","""event"",""trial"",""time""
""fullscreenenter"",""0"",""4212""
","
","null","","","","","","","","null","0,1,0","0","coast","3","probe-213","0.5408803434175249","0.27496336761178103","0.09813317860373162","","","","","","","","",""
"","html-keyboard-response","123","606898","0.0-67.0-1.0","""event"",""trial"",""time""
""fullscreenenter"",""0"",""4212""
","
","
","""event"",""trial"",""time""
""fullscreenenter"",""0"",""4212""
","
","null","<p></p>","null","","","","","","","","","","","","","","","","","","","","","","",""
"","do_trial","124","612308","0.0-68.0-0.0","""event"",""trial"",""time""
""fullscreenenter"",""0"",""4212""
","
","
","""event"",""trial"",""time""
""fullscreenenter"",""0"",""4212""
","
","776.7000000001863","","","","","","","","49","0,0,0","0","coast","4","probe-163","0.6149151889789359","0.30511795704754635","0.246870279127643","0","","","","","","","",""
"","html-keyboard-response","125","613315","0.0-68.0-1.0","""event"",""trial"",""time""
""fullscreenenter"",""0"",""4212""
","
","
","""event"",""trial"",""time""
""fullscreenenter"",""0"",""4212""
","
","null","<p></p>","null","","","","","","","","","","","","","","","","","","","","","","",""
"","do_trial","126","618346","0.0-69.0-0.0","""event"",""trial"",""time""
""fullscreenenter"",""0"",""4212""
","
","
","""event"",""trial"",""time""
""fullscreenenter"",""0"",""4212""
","
","390.5","","","","","","","","50","0,0,0","0","coast","5","probe-16","0.49595087273574223","0.4797882178203986","0.2361546195372886","0","","","","","","","",""
"","html-keyboard-response","127","619352","0.0-69.0-1.0","""event"",""trial"",""time""
""fullscreenenter"",""0"",""4212""
","
","
","""event"",""trial"",""time""
""fullscreenenter"",""0"",""4212""
","
","null","<p></p>","null","","","","","","","","","","","","","","","","","","","","","","",""
"","do_trial","128","624133","0.0-70.0-0.0","""event"",""trial"",""time""
""fullscreenenter"",""0"",""4212""
","
","
","""event"",""trial"",""time""
""fullscreenenter"",""0"",""4212""
","
","150.40000000037253","","","","","","","","51","0,0,0","0","coast","6","probe-230","0.3907767260339533","0.40712981237834117","0.2054978107679905","0","","","","","","","",""
"","html-keyboard-response","129","625141","0.0-70.0-1.0","""event"",""trial"",""time""
""fullscreenenter"",""0"",""4212""
","
","
","""event"",""trial"",""time""
""fullscreenenter"",""0"",""4212""
","
","null","<p></p>","null","","","","","","","","","","","","","","","","","","","","","","",""
"","do_trial","130","630658","0.0-71.0-0.0","""event"",""trial"",""time""
""fullscreenenter"",""0"",""4212""
","
","
","""event"",""trial"",""time""
""fullscreenenter"",""0"",""4212""
","
","882.2000000001863","","","","","","","","51","0,1,1","0","coast","7","probe-96","0.28338394904846814","0.3015656358291895","0.14115906755357818","1","","","","","","","",""
"","html-keyboard-response","131","631664","0.0-71.0-1.0","""event"",""trial"",""time""
""fullscreenenter"",""0"",""4212""
","
","
","""event"",""trial"",""time""
""fullscreenenter"",""0"",""4212""
","
","null","<p></p>","null","","","","","","","","","","","","","","","","","","","","","","",""
"","do_trial","132","636716","0.0-72.0-0.0","""event"",""trial"",""time""
""fullscreenenter"",""0"",""4212""
","
","
","""event"",""trial"",""time""
""fullscreenenter"",""0"",""4212""
","
","418.70000000018626","","","","","","","","50","0,0,0","0","coast","8","probe-17","0.443116690646375","0.21462445614907744","0.15378903482189787","0","","","","","","","",""
"","html-keyboard-response","133","637725","0.0-72.0-1.0","""event"",""trial"",""time""
""fullscreenenter"",""0"",""4212""
","
","
","""event"",""trial"",""time""
""fullscreenenter"",""0"",""4212""
","
","null","<p></p>","null","","","","","","","","","","","","","","","","","","","","","","",""
"","do_trial","134","642356","0.0-73.0-0.0","""event"",""trial"",""time""
""fullscreenenter"",""0"",""4212""
","
","
","""event"",""trial"",""time""
""fullscreenenter"",""0"",""4212""
","
","0.40000000037252903","","","","","","","","49","1,1,1","0","coast","9","probe-136","0.4562422061052685","0.3725945567763268","0.1368784833856745","1","","","","","","","",""
"","html-keyboard-response","135","643362","0.0-73.0-1.0","""event"",""trial"",""time""
""fullscreenenter"",""0"",""4212""
","
","
","""event"",""trial"",""time""
""fullscreenenter"",""0"",""4212""
","
","null","<p></p>","null","","","","","","","","","","","","","","","","","","","","","","",""
"","do_trial","136","648431","0.0-74.0-0.0","""event"",""trial"",""time""
""fullscreenenter"",""0"",""4212""
","
","
","""event"",""trial"",""time""
""fullscreenenter"",""0"",""4212""
","
","426.70000000018626","","","","","","","","49","0,0,0","0","coast","10","probe-207","0.6125264854025622","0.4143481582308065","0.06688179471577593","0","","","","","","","",""
"","html-keyboard-response","137","649438","0.0-74.0-1.0","""event"",""trial"",""time""
""fullscreenenter"",""0"",""4212""
","
","
","""event"",""trial"",""time""
""fullscreenenter"",""0"",""4212""
","
","null","<p></p>","null","","","","","","","","","","","","","","","","","","","","","","",""
"","do_trial","138","654420","0.0-75.0-0.0","""event"",""trial"",""time""
""fullscreenenter"",""0"",""4212""
","
","
","""event"",""trial"",""time""
""fullscreenenter"",""0"",""4212""
","
","347.5","","","","","","","","50","1,0,1","0","coast","11","probe-148","0.624212411520311","0.47797296998747896","0.16382683760616892","0","","","","","","","",""
"","html-keyboard-response","139","655427","0.0-75.0-1.0","""event"",""trial"",""time""
""fullscreenenter"",""0"",""4212""
","
","
","""event"",""trial"",""time""
""fullscreenenter"",""0"",""4212""
","
","null","<p></p>","null","","","","","","","","","","","","","","","","","","","","","","",""
"","do_trial","140","660754","0.0-76.0-0.0","""event"",""trial"",""time""
""fullscreenenter"",""0"",""4212""
","
","
","""event"",""trial"",""time""
""fullscreenenter"",""0"",""4212""
","
","698.4000000003725","","","","","","","","51","1,1,0","0","coast","12","probe-72","0.6474961124352668","0.43217666157326107","0.10732477887328169","0","","","","","","","",""
"","html-keyboard-response","141","661760","0.0-76.0-1.0","""event"",""trial"",""time""
""fullscreenenter"",""0"",""4212""
","
","
","""event"",""trial"",""time""
""fullscreenenter"",""0"",""4212""
","
","null","<p></p>","null","","","","","","","","","","","","","","","","","","","","","","",""
"","do_trial","142","666940","0.0-77.0-0.0","""event"",""trial"",""time""
""fullscreenenter"",""0"",""4212""
","
","
","""event"",""trial"",""time""
""fullscreenenter"",""0"",""4212""
","
","539.1000000005588","","","","","","","","49","0,0,1","0","coast","13","probe-25","0.6651446644139482","0.34539993988570017","0.2340116729775794","0","","","","","","","",""
"","html-keyboard-response","143","667948","0.0-77.0-1.0","""event"",""trial"",""time""
""fullscreenenter"",""0"",""4212""
","
","
","""event"",""trial"",""time""
""fullscreenenter"",""0"",""4212""
","
","null","<p></p>","null","","","","","","","","","","","","","","","","","","","","","","",""
"","do_trial","144","673501","0.0-78.0-0.0","""event"",""trial"",""time""
""fullscreenenter"",""0"",""4212""
","
","
","""event"",""trial"",""time""
""fullscreenenter"",""0"",""4212""
","
","914.6000000005588","","","","","","","","50","0,0,0","0","coast","14","probe-146","0.5845278552770239","0.20986162813031628","0.17641192675586556","0","","","","","","","",""
"","html-keyboard-response","145","674507","0.0-78.0-1.0","""event"",""trial"",""time""
""fullscreenenter"",""0"",""4212""
","
","
","""event"",""trial"",""time""
""fullscreenenter"",""0"",""4212""
","
","null","<p></p>","null","","","","","","","","","","","","","","","","","","","","","","",""
"","do_trial","146","679624","0.0-79.0-0.0","""event"",""trial"",""time""
""fullscreenenter"",""0"",""4212""
","
","
","""event"",""trial"",""time""
""fullscreenenter"",""0"",""4212""
","
","479.70000000018626","","","","","","","","51","1,0,0","0","coast","15","probe-40","0.4703267723793801","0.3180960332116025","0.09774630026134325","0","","","","","","","",""
"","html-keyboard-response","147","680630","0.0-79.0-1.0","""event"",""trial"",""time""
""fullscreenenter"",""0"",""4212""
","
","
","""event"",""trial"",""time""
""fullscreenenter"",""0"",""4212""
","
","null","<p></p>","null","","","","","","","","","","","","","","","","","","","","","","",""
"","do_trial","148","686440","0.0-80.0-0.0","""event"",""trial"",""time""
""fullscreenenter"",""0"",""4212""
","
","
","""event"",""trial"",""time""
""fullscreenenter"",""0"",""4212""
","
","1168.199999999255","","","","","","","","49","0,1,0","0","coast","16","probe-64","0.47029254277708255","0.4404133087562143","0.16212063818929573","0","","","","","","","",""
"","html-keyboard-response","149","687448","0.0-80.0-1.0","""event"",""trial"",""time""
""fullscreenenter"",""0"",""4212""
","
","
","""event"",""trial"",""time""
""fullscreenenter"",""0"",""4212""
","
","null","<p></p>","null","","","","","","","","","","","","","","","","","","","","","","",""
"","do_trial","150","692461","0.0-81.0-0.0","""event"",""trial"",""time""
""fullscreenenter"",""0"",""4212""
","
","
","""event"",""trial"",""time""
""fullscreenenter"",""0"",""4212""
","
","384.70000000018626","","","","","","","","50","1,1,0","0","coast","17","probe-07","0.5437430082920653","0.33845985074427715","0.1725922337404001","1","","","","","","","",""
"","html-keyboard-response","151","693469","0.0-81.0-1.0","""event"",""trial"",""time""
""fullscreenenter"",""0"",""4212""
","
","
","""event"",""trial"",""time""
""fullscreenenter"",""0"",""4212""
","
","null","<p></p>","null","","","","","","","","","","","","","","","","","","","","","","",""
"","do_trial","152","698859","0.0-82.0-0.0","""event"",""trial"",""time""
""fullscreenenter"",""0"",""4212""
","
","
","""event"",""trial"",""time""
""fullscreenenter"",""0"",""4212""
","
","762.7999999998137","","","","","","","","51","1,0,0","0","coast","18","probe-167","0.718606332140408","0.15097324791751093","0.16984408929255276","0","","","","","","","",""
"","html-keyboard-response","153","699865","0.0-82.0-1.0","""event"",""trial"",""time""
""fullscreenenter"",""0"",""4212""
","
","
","""event"",""trial"",""time""
""fullscreenenter"",""0"",""4212""
","
","null","<p></p>","null","","","","","","","","","","","","","","","","","","","","","","",""
"","do_trial","154","705564","0.0-83.0-0.0","""event"",""trial"",""time""
""fullscreenenter"",""0"",""4212""
","
","
","""event"",""trial"",""time""
""fullscreenenter"",""0"",""4212""
","
","1072.5","","","","","","","","49","1,0,0","0","coast","19","probe-98","0.6199306912298602","0.14434547820726887","0.1085069929532258","1","","","","","","","",""
"","html-keyboard-response","155","706569","0.0-83.0-1.0","""event"",""trial"",""time""
""fullscreenenter"",""0"",""4212""
","
","
","""event"",""trial"",""time""
""fullscreenenter"",""0"",""4212""
","
","null","<p></p>","null","","","","","","","","","","","","","","","","","","","","","","",""
"","do_trial","156","711680","0.0-84.0-0.0","""event"",""trial"",""time""
""fullscreenenter"",""0"",""4212""
","
","
","""event"",""trial"",""time""
""fullscreenenter"",""0"",""4212""
","
","476.5","","","","","","","","50","1,1,0","0","coast","20","probe-26","0.7152882806565763","0.28515979439619393","0.20468949918975335","1","","","","","","","",""
"","html-keyboard-response","157","712687","0.0-84.0-1.0","""event"",""trial"",""time""
""fullscreenenter"",""0"",""4212""
","
","
","""event"",""trial"",""time""
""fullscreenenter"",""0"",""4212""
","
","null","<p></p>","null","","","","","","","","","","","","","","","","","","","","","","",""
"","do_trial","158","717810","0.0-85.0-0.0","""event"",""trial"",""time""
""fullscreenenter"",""0"",""4212""
","
","
","""event"",""trial"",""time""
""fullscreenenter"",""0"",""4212""
","
","492.70000000018626","","","","","","","","51","1,0,0","0","coast","21","probe-67","0.7468196657922487","0.280096167132215","0.11399562881853578","0","","","","","","","",""
"","html-keyboard-response","159","718818","0.0-85.0-1.0","""event"",""trial"",""time""
""fullscreenenter"",""0"",""4212""
","
","
","""event"",""trial"",""time""
""fullscreenenter"",""0"",""4212""
","
","null","<p></p>","null","","","","","","","","","","","","","","","","","","","","","","",""
"","do_trial","160","724552","0.0-86.0-0.0","""event"",""trial"",""time""
""fullscreenenter"",""0"",""4212""
","
","
","""event"",""trial"",""time""
""fullscreenenter"",""0"",""4212""
","
","1099","","","","","","","","49","1,0,0","0","coast","22","probe-132","0.7318649773595644","0.12044819397273152","0.13927685856452562","1","","","","","","","",""
"","html-keyboard-response","161","725558","0.0-86.0-1.0","""event"",""trial"",""time""
""fullscreenenter"",""0"",""4212""
","
","
","""event"",""trial"",""time""
""fullscreenenter"",""0"",""4212""
","
","null","<p></p>","null","","","","","","","","","","","","","","","","","","","","","","",""
"","do_trial","162","730601","0.0-87.0-0.0","""event"",""trial"",""time""
""fullscreenenter"",""0"",""4212""
","
","
","""event"",""trial"",""time""
""fullscreenenter"",""0"",""4212""
","
","403.79999999981374","","","","","","","","50","1,1,0","0","coast","23","probe-228","0.6602839341429972","0.24227556130218614","0.06378648387714606","1","","","","","","","",""
"","html-keyboard-response","163","731608","0.0-87.0-1.0","""event"",""trial"",""time""
""fullscreenenter"",""0"",""4212""
","
","
","""event"",""trial"",""time""
""fullscreenenter"",""0"",""4212""
","
","null","<p></p>","null","","","","","","","","","","","","","","","","","","","","","","",""
"","do_trial","164","736658","0.0-88.0-0.0","""event"",""trial"",""time""
""fullscreenenter"",""0"",""4212""
","
","
","""event"",""trial"",""time""
""fullscreenenter"",""0"",""4212""
","
","422.6000000005588","","","","","","","","51","0,0,0","0","coast","24","probe-95","0.6706505952349943","0.18213685372143693","0.12014762496551921","0","","","","","","","",""
"","html-keyboard-response","165","737664","0.0-88.0-1.0","""event"",""trial"",""time""
""fullscreenenter"",""0"",""4212""
","
","
","""event"",""trial"",""time""
""fullscreenenter"",""0"",""4212""
","
","null","<p></p>","null","","","","","","","","","","","","","","","","","","","","","","",""
"","do_trial","166","743302","0.0-89.0-0.0","""event"",""trial"",""time""
""fullscreenenter"",""0"",""4212""
","
","
","""event"",""trial"",""time""
""fullscreenenter"",""0"",""4212""
","
","1011.4000000003725","","","","","","","","49","1,0,0","0","coast","25","probe-116","0.6555825068837245","0.22437918641637655","0.0885580100898115","1","","","","","","","",""
"","html-keyboard-response","167","744310","0.0-89.0-1.0","""event"",""trial"",""time""
""fullscreenenter"",""0"",""4212""
","
","
","""event"",""trial"",""time""
""fullscreenenter"",""0"",""4212""
","
","null","<p></p>","null","","","","","","","","","","","","","","","","","","","","","","",""
"","do_trial","168","750341","0.0-90.0-0.0","""event"",""trial"",""time""
""fullscreenenter"",""0"",""4212""
","
","
","""event"",""trial"",""time""
""fullscreenenter"",""0"",""4212""
","
","1391.1000000005588","","","","","","","","50","1,1,0","0","coast","26","probe-57","0.6116499181242816","0.3853478772694836","0.10504634295337564","1","","","","","","","",""
"","html-keyboard-response","169","751345","0.0-90.0-1.0","""event"",""trial"",""time""
""fullscreenenter"",""0"",""4212""
","
","
","""event"",""trial"",""time""
""fullscreenenter"",""0"",""4212""
","
","null","<p></p>","null","","","","","","","","","","","","","","","","","","","","","","",""
"","do_trial","170","757353","0.0-91.0-0.0","""event"",""trial"",""time""
""fullscreenenter"",""0"",""4212""
","
","
","""event"",""trial"",""time""
""fullscreenenter"",""0"",""4212""
","
","1371.5999999996275","","","","","","","","51","1,1,0","0","coast","27","probe-76","0.5578412127801796","0.30514302704031104","0.07245539101279344","0","","","","","","","",""
"","html-keyboard-response","171","758359","0.0-91.0-1.0","""event"",""trial"",""time""
""fullscreenenter"",""0"",""4212""
","
","
","""event"",""trial"",""time""
""fullscreenenter"",""0"",""4212""
","
","null","<p></p>","null","","","","","","","","","","","","","","","","","","","","","","",""
"","do_trial","172","763450","0.0-92.0-0.0","""event"",""trial"",""time""
""fullscreenenter"",""0"",""4212""
","
","
","""event"",""trial"",""time""
""fullscreenenter"",""0"",""4212""
","
","437.3999999994412","","","","","","","","49","0,0,0","0","coast","28","probe-187","0.5837193847403126","0.27981635586323217","0.10983099225776828","0","","","","","","","",""
"","html-keyboard-response","173","764456","0.0-92.0-1.0","""event"",""trial"",""time""
""fullscreenenter"",""0"",""4212""
","
","
","""event"",""trial"",""time""
""fullscreenenter"",""0"",""4212""
","
","null","<p></p>","null","","","","","","","","","","","","","","","","","","","","","","",""
"","do_trial","174","769863","0.0-93.0-0.0","""event"",""trial"",""time""
""fullscreenenter"",""0"",""4212""
","
","
","""event"",""trial"",""time""
""fullscreenenter"",""0"",""4212""
","
","767.7999999998137","","","","","","","","50","0,0,0","0","coast","29","probe-160","0.5597581070691986","0.2831723670088595","0.11028070587758496","0","","","","","","","",""
"","html-keyboard-response","175","770876","0.0-93.0-1.0","""event"",""trial"",""time""
""fullscreenenter"",""0"",""4212""
","
","
","""event"",""trial"",""time""
""fullscreenenter"",""0"",""4212""
","
","null","<p></p>","null","","","","","","","","","","","","","","","","","","","","","","",""
"","do_bye","176","772393","0.0-94.0-0.0","""event"",""trial"",""time""
""fullscreenenter"",""0"",""4212""
","
","
","""event"",""trial"",""time""
""fullscreenenter"",""0"",""4212""
","
","null","","","","","","","","null","","","","","","","","","","","","","","","","",""
"","break","177","778696","0.0-94.0-1.0","""event"",""trial"",""time""
""fullscreenenter"",""0"",""4212""
","
","
","""event"",""trial"",""time""
""fullscreenenter"",""0"",""4212""
","
","6296.4000000003725","<div class='center'><p>Time to take a quick break! You have 2 minutes to rest, but you can move on sooner if you'd like.</p><p> Press the <b>space bar</b> to continue.</p></div>","32","","","","","","","","","","","","","","","","","","","","","","",""
"","do_travel","178","787707","0.0-95.0-0.0","""event"",""trial"",""time""
""fullscreenenter"",""0"",""4212""
","
","
","""event"",""trial"",""time""
""fullscreenenter"",""0"",""4212""
","
","null","","","","","","","","null","","","","","","","","","","","","","","","","",""
"","do_welcome","179","791727","0.0-95.0-1.0","""event"",""trial"",""time""
""fullscreenenter"",""0"",""4212""
","
","
","""event"",""trial"",""time""
""fullscreenenter"",""0"",""4212""
","
","null","","","","","","","","null","","","","","","","","","","","","","","","","",""
"","do_trial","180","798319","0.0-96.0-0.0","""event"",""trial"",""time""
""fullscreenenter"",""0"",""4212""
","
","
","""event"",""trial"",""time""
""fullscreenenter"",""0"",""4212""
","
","1964.800000000745","","","","","","","","49","1,0,0","1","mountain","30","probe-10","1","0.21406060830354523","0.0780325566779788","1","","","","","","","",""
"","html-keyboard-response","181","799327","0.0-96.0-1.0","""event"",""trial"",""time""
""fullscreenenter"",""0"",""4212""
","
","
","""event"",""trial"",""time""
""fullscreenenter"",""0"",""4212""
","
","null","<p></p>","null","","","","","","","","","","","","","","","","","","","","","","",""
"","do_trial","182","804667","0.0-97.0-0.0","""event"",""trial"",""time""
""fullscreenenter"",""0"",""4212""
","
","
","""event"",""trial"",""time""
""fullscreenenter"",""0"",""4212""
","
","697","","","","","","","","50","1,1,0","1","mountain","31","probe-71","1","0.25274926594817176","0.06058815484601721","1","","","","","","","",""
"","html-keyboard-response","183","805673","0.0-97.0-1.0","""event"",""trial"",""time""
""fullscreenenter"",""0"",""4212""
","
","
","""event"",""trial"",""time""
""fullscreenenter"",""0"",""4212""
","
","null","<p></p>","null","","","","","","","","","","","","","","","","","","","","","","",""
"","do_trial","184","810760","0.0-98.0-0.0","""event"",""trial"",""time""
""fullscreenenter"",""0"",""4212""
","
","
","""event"",""trial"",""time""
""fullscreenenter"",""0"",""4212""
","
","453.09999999962747","","","","","","","","51","1,0,0","1","mountain","32","probe-195","1","0.35571843863482017","0.05157656051189822","0","","","","","","","",""
"","html-keyboard-response","185","811767","0.0-98.0-1.0","""event"",""trial"",""time""
""fullscreenenter"",""0"",""4212""
","
","
","""event"",""trial"",""time""
""fullscreenenter"",""0"",""4212""
","
","null","<p></p>","null","","","","","","","","","","","","","","","","","","","","","","",""
"","do_trial","186","816952","0.0-99.0-0.0","""event"",""trial"",""time""
""fullscreenenter"",""0"",""4212""
","
","
","""event"",""trial"",""time""
""fullscreenenter"",""0"",""4212""
","
","547.5999999996275","","","","","","","","49","0,1,0","1","mountain","33","probe-68","0.8005173775843298","0.31508835825290443","0.13383299073206956","0","","","","","","","",""
"","html-keyboard-response","187","817957","0.0-99.0-1.0","""event"",""trial"",""time""
""fullscreenenter"",""0"",""4212""
","
","
","""event"",""trial"",""time""
""fullscreenenter"",""0"",""4212""
","
","null","<p></p>","null","","","","","","","","","","","","","","","","","","","","","","",""
"","do_trial","188","823142","0.0-100.0-0.0","""event"",""trial"",""time""
""fullscreenenter"",""0"",""4212""
","
","
","""event"",""trial"",""time""
""fullscreenenter"",""0"",""4212""
","
","556.4000000003725","","","","","","","","50","1,1,0","1","mountain","34","probe-139","0.6193329822495052","0.3826836513426234","0.10485871185627899","1","","","","","","","",""
"","html-keyboard-response","189","824149","0.0-100.0-1.0","""event"",""trial"",""time""
""fullscreenenter"",""0"",""4212""
","
","
","""event"",""trial"",""time""
""fullscreenenter"",""0"",""4212""
","
","null","<p></p>","null","","","","","","","","","","","","","","","","","","","","","","",""
"","do_trial","190","829479","0.0-101.0-0.0","""event"",""trial"",""time""
""fullscreenenter"",""0"",""4212""
","
","
","""event"",""trial"",""time""
""fullscreenenter"",""0"",""4212""
","
","695.5","","","","","","","","50","0,0,0","1","mountain","35","probe-135","0.668455239629384","0.3148870486685603","0.10102623169265673","0","","","","","","","",""
"","html-keyboard-response","191","830486","0.0-101.0-1.0","""event"",""trial"",""time""
""fullscreenenter"",""0"",""4212""
","
","
","""event"",""trial"",""time""
""fullscreenenter"",""0"",""4212""
","
","null","<p></p>","null","","","","","","","","","","","","","","","","","","","","","","",""
"","do_trial","192","835572","0.0-102.0-0.0","""event"",""trial"",""time""
""fullscreenenter"",""0"",""4212""
","
","
","""event"",""trial"",""time""
""fullscreenenter"",""0"",""4212""
","
","456.70000000018626","","","","","","","","51","0,1,0","1","mountain","36","probe-56","0.6163301449455783","0.34652907661423926","0.13302807924004884","0","","","","","","","",""
"","html-keyboard-response","193","836578","0.0-102.0-1.0","""event"",""trial"",""time""
""fullscreenenter"",""0"",""4212""
","
","
","""event"",""trial"",""time""
""fullscreenenter"",""0"",""4212""
","
","null","<p></p>","null","","","","","","","","","","","","","","","","","","","","","","",""
"","do_trial","194","842424","0.0-103.0-0.0","""event"",""trial"",""time""
""fullscreenenter"",""0"",""4212""
","
","
","""event"",""trial"",""time""
""fullscreenenter"",""0"",""4212""
","
","1214.7999999998137","","","","","","","","49","1,1,0","1","mountain","37","probe-61","0.5662292471674077","0.31773108518089305","0.18281348427164879","1","","","","","","","",""
"","html-keyboard-response","195","843433","0.0-103.0-1.0","""event"",""trial"",""time""
""fullscreenenter"",""0"",""4212""
","
","
","""event"",""trial"",""time""
""fullscreenenter"",""0"",""4212""
","
","null","<p></p>","null","","","","","","","","","","","","","","","","","","","","","","",""
"","do_trial","196","848453","0.0-104.0-0.0","""event"",""trial"",""time""
""fullscreenenter"",""0"",""4212""
","
","
","""event"",""trial"",""time""
""fullscreenenter"",""0"",""4212""
","
","387.3999999994412","","","","","","","","50","1,0,1","1","mountain","38","probe-126","0.6770807420107597","0.33363773696163423","0.31722771749225503","0","","","","","","","",""
"","html-keyboard-response","197","849460","0.0-104.0-1.0","""event"",""trial"",""time""
""fullscreenenter"",""0"",""4212""
","
","
","""event"",""trial"",""time""
""fullscreenenter"",""0"",""4212""
","
","null","<p></p>","null","","","","","","","","","","","","","","","","","","","","","","",""
"","do_trial","198","854289","0.0-105.0-0.0","""event"",""trial"",""time""
""fullscreenenter"",""0"",""4212""
","
","
","""event"",""trial"",""time""
""fullscreenenter"",""0"",""4212""
","
","200.6000000005588","","","","","","","","51","1,0,0","1","mountain","39","probe-20","0.6435674390319984","0.40523158847437224","0.2881847395341256","0","","","","","","","",""
"","html-keyboard-response","199","855297","0.0-105.0-1.0","""event"",""trial"",""time""
""fullscreenenter"",""0"",""4212""
","
","
","""event"",""trial"",""time""
""fullscreenenter"",""0"",""4212""
","
","null","<p></p>","null","","","","","","","","","","","","","","","","","","","","","","",""
"","do_trial","200","860325","0.0-106.0-0.0","""event"",""trial"",""time""
""fullscreenenter"",""0"",""4212""
","
","
","""event"",""trial"",""time""
""fullscreenenter"",""0"",""4212""
","
","392.79999999981374","","","","","","","","49","1,1,0","1","mountain","40","probe-18","0.6572137792532351","0.38352128160128085","0.18558235789718194","1","","","","","","","",""
"","html-keyboard-response","201","861331","0.0-106.0-1.0","""event"",""trial"",""time""
""fullscreenenter"",""0"",""4212""
","
","
","""event"",""trial"",""time""
""fullscreenenter"",""0"",""4212""
","
","null","<p></p>","null","","","","","","","","","","","","","","","","","","","","","","",""
"","do_trial","202","866886","0.0-107.0-0.0","""event"",""trial"",""time""
""fullscreenenter"",""0"",""4212""
","
","
","""event"",""trial"",""time""
""fullscreenenter"",""0"",""4212""
","
","932.9000000003725","","","","","","","","50","0,0,0","1","mountain","41","probe-198","0.5792223284921255","0.36488164935339634","0.21291902183152506","0","","","","","","","",""
"","html-keyboard-response","203","867891","0.0-107.0-1.0","""event"",""trial"",""time""
""fullscreenenter"",""0"",""4212""
","
","
","""event"",""trial"",""time""
""fullscreenenter"",""0"",""4212""
","
","null","<p></p>","null","","","","","","","","","","","","","","","","","","","","","","",""
"","do_trial","204","873073","0.0-108.0-0.0","""event"",""trial"",""time""
""fullscreenenter"",""0"",""4212""
","
","
","""event"",""trial"",""time""
""fullscreenenter"",""0"",""4212""
","
","544.5","","","","","","","","51","0,0,0","1","mountain","42","probe-206","0.3810350823721397","0.1777943820504981","0.38102578018007566","0","","","","","","","",""
"","html-keyboard-response","205","874081","0.0-108.0-1.0","""event"",""trial"",""time""
""fullscreenenter"",""0"",""4212""
","
","
","""event"",""trial"",""time""
""fullscreenenter"",""0"",""4212""
","
","null","<p></p>","null","","","","","","","","","","","","","","","","","","","","","","",""
"","do_trial","206","879826","0.0-109.0-0.0","""event"",""trial"",""time""
""fullscreenenter"",""0"",""4212""
","
","
","""event"",""trial"",""time""
""fullscreenenter"",""0"",""4212""
","
","1117.2999999998137","","","","","","","","49","0,0,0","1","mountain","43","probe-119","0.3192332657153417","0.1412736321646087","0.43746952019807317","0","","","","","","","",""
"","html-keyboard-response","207","880834","0.0-109.0-1.0","""event"",""trial"",""time""
""fullscreenenter"",""0"",""4212""
","
","
","""event"",""trial"",""time""
""fullscreenenter"",""0"",""4212""
","
","null","<p></p>","null","","","","","","","","","","","","","","","","","","","","","","",""
"","do_trial","208","886035","0.0-110.0-0.0","""event"",""trial"",""time""
""fullscreenenter"",""0"",""4212""
","
","
","""event"",""trial"",""time""
""fullscreenenter"",""0"",""4212""
","
","568.8999999994412","","","","","","","","50","0,1,0","1","mountain","44","probe-78","0.210201975889509","0.3324594628418231","0.5231450875786873","1","","","","","","","",""
"","html-keyboard-response","209","887041","0.0-110.0-1.0","""event"",""trial"",""time""
""fullscreenenter"",""0"",""4212""
","
","
","""event"",""trial"",""time""
""fullscreenenter"",""0"",""4212""
","
","null","<p></p>","null","","","","","","","","","","","","","","","","","","","","","","",""
"","do_trial","210","892390","0.0-111.0-0.0","""event"",""trial"",""time""
""fullscreenenter"",""0"",""4212""
","
","
","""event"",""trial"",""time""
""fullscreenenter"",""0"",""4212""
","
","712.7000000001863","","","","","","","","51","0,1,1","1","mountain","45","probe-37","0.10603406862884594","0.5381196835076999","0.5515187716575853","1","","","","","","","",""
"","html-keyboard-response","211","893395","0.0-111.0-1.0","""event"",""trial"",""time""
""fullscreenenter"",""0"",""4212""
","
","
","""event"",""trial"",""time""
""fullscreenenter"",""0"",""4212""
","
","null","<p></p>","null","","","","","","","","","","","","","","","","","","","","","","",""
"","do_trial","212","899500","0.0-112.0-0.0","""event"",""trial"",""time""
""fullscreenenter"",""0"",""4212""
","
","
","""event"",""trial"",""time""
""fullscreenenter"",""0"",""4212""
","
","1478.699999999255","","","","","","","","49","0,0,1","1","mountain","46","probe-32","0.16362523607530335","0.4037471414823324","0.56360104078865","0","","","","","","","",""
"","html-keyboard-response","213","900508","0.0-112.0-1.0","""event"",""trial"",""time""
""fullscreenenter"",""0"",""4212""
","
","
","""event"",""trial"",""time""
""fullscreenenter"",""0"",""4212""
","
","null","<p></p>","null","","","","","","","","","","","","","","","","","","","","","","",""
"","do_trial","214","905713","0.0-113.0-0.0","""event"",""trial"",""time""
""fullscreenenter"",""0"",""4212""
","
","
","""event"",""trial"",""time""
""fullscreenenter"",""0"",""4212""
","
","571.9000000003725","","","","","","","","50","0,0,0","1","mountain","47","probe-218","0.05678597380564639","0.3934458299336152","0.6384873676263423","0","","","","","","","",""
"","html-keyboard-response","215","906719","0.0-113.0-1.0","""event"",""trial"",""time""
""fullscreenenter"",""0"",""4212""
","
","
","""event"",""trial"",""time""
""fullscreenenter"",""0"",""4212""
","
","null","<p></p>","null","","","","","","","","","","","","","","","","","","","","","","",""
"","do_trial","216","912018","0.0-114.0-0.0","""event"",""trial"",""time""
""fullscreenenter"",""0"",""4212""
","
","
","""event"",""trial"",""time""
""fullscreenenter"",""0"",""4212""
","
","670.2999999998137","","","","","","","","51","0,1,1","1","mountain","48","probe-110","0.05200947248072303","0.42676522359520624","0.6731097262216379","1","","","","","","","",""
"","html-keyboard-response","217","913026","0.0-114.0-1.0","""event"",""trial"",""time""
""fullscreenenter"",""0"",""4212""
","
","
","""event"",""trial"",""time""
""fullscreenenter"",""0"",""4212""
","
","null","<p></p>","null","","","","","","","","","","","","","","","","","","","","","","",""
"","do_trial","218","917653","0.0-115.0-0.0","""event"",""trial"",""time""
""fullscreenenter"",""0"",""4212""
","
","
","""event"",""trial"",""time""
""fullscreenenter"",""0"",""4212""
","
","0.5","","","","","","","","49","0,0,1","1","mountain","49","probe-107","0.08129141192499827","0.45264351579206913","0.49926843736128396","0","","","","","","","",""
"","html-keyboard-response","219","918659","0.0-115.0-1.0","""event"",""trial"",""time""
""fullscreenenter"",""0"",""4212""
","
","
","""event"",""trial"",""time""
""fullscreenenter"",""0"",""4212""
","
","null","<p></p>","null","","","","","","","","","","","","","","","","","","","","","","",""
"","do_trial","220","923739","0.0-116.0-0.0","""event"",""trial"",""time""
""fullscreenenter"",""0"",""4212""
","
","
","""event"",""trial"",""time""
""fullscreenenter"",""0"",""4212""
","
","451.19999999925494","","","","","","","","50","0,1,0","1","mountain","50","probe-113","0.09363285749579225","0.47020548927999684","0.5857492147904059","1","","","","","","","",""
"","html-keyboard-response","221","924745","0.0-116.0-1.0","""event"",""trial"",""time""
""fullscreenenter"",""0"",""4212""
","
","
","""event"",""trial"",""time""
""fullscreenenter"",""0"",""4212""
","
","null","<p></p>","null","","","","","","","","","","","","","","","","","","","","","","",""
"","do_trial","222","930306","0.0-117.0-0.0","""event"",""trial"",""time""
""fullscreenenter"",""0"",""4212""
","
","
","""event"",""trial"",""time""
""fullscreenenter"",""0"",""4212""
","
","929.0999999996275","","","","","","","","51","0,0,1","1","mountain","51","probe-50","0.11295492453237724","0.4121689011131744","0.5792062886575013","1","","","","","","","",""
"","html-keyboard-response","223","931313","0.0-117.0-1.0","""event"",""trial"",""time""
""fullscreenenter"",""0"",""4212""
","
","
","""event"",""trial"",""time""
""fullscreenenter"",""0"",""4212""
","
","null","<p></p>","null","","","","","","","","","","","","","","","","","","","","","","",""
"","do_trial","224","936915","0.0-118.0-0.0","""event"",""trial"",""time""
""fullscreenenter"",""0"",""4212""
","
","
","""event"",""trial"",""time""
""fullscreenenter"",""0"",""4212""
","
","974.2999999998137","","","","","","","","49","0,0,0","1","mountain","52","probe-45","0.18011015538205055","0.3805591382835024","0.5748160811914539","0","","","","","","","",""
"","html-keyboard-response","225","937923","0.0-118.0-1.0","""event"",""trial"",""time""
""fullscreenenter"",""0"",""4212""
","
","
","""event"",""trial"",""time""
""fullscreenenter"",""0"",""4212""
","
","null","<p></p>","null","","","","","","","","","","","","","","","","","","","","","","",""
"","do_trial","226","943311","0.0-119.0-0.0","""event"",""trial"",""time""
""fullscreenenter"",""0"",""4212""
","
","
","""event"",""trial"",""time""
""fullscreenenter"",""0"",""4212""
","
","760.5999999996275","","","","","","","","50","0,0,1","1","mountain","53","probe-42","0.26139842788557255","0.3030716631479668","0.4668156346590039","0","","","","","","","",""
"","html-keyboard-response","227","944319","0.0-119.0-1.0","""event"",""trial"",""time""
""fullscreenenter"",""0"",""4212""
","
","
","""event"",""trial"",""time""
""fullscreenenter"",""0"",""4212""
","
","null","<p></p>","null","","","","","","","","","","","","","","","","","","","","","","",""
"","do_trial","228","950537","0.0-120.0-0.0","""event"",""trial"",""time""
""fullscreenenter"",""0"",""4212""
","
","
","""event"",""trial"",""time""
""fullscreenenter"",""0"",""4212""
","
","1592.5","","","","","","","","51","0,0,0","1","mountain","54","probe-180","0.21973656661359287","0.2933466365969345","0.4244852636699242","0","","","","","","","",""
"","html-keyboard-response","229","951542","0.0-120.0-1.0","""event"",""trial"",""time""
""fullscreenenter"",""0"",""4212""
","
","
","""event"",""trial"",""time""
""fullscreenenter"",""0"",""4212""
","
","null","<p></p>","null","","","","","","","","","","","","","","","","","","","","","","",""
"","do_trial","230","957958","0.0-121.0-0.0","""event"",""trial"",""time""
""fullscreenenter"",""0"",""4212""
","
","
","""event"",""trial"",""time""
""fullscreenenter"",""0"",""4212""
","
","1784.7999999998137","","","","","","","","49","0,0,0","1","mountain","55","probe-120","0.2374796172037079","0.22034963357418902","0.41122948105408214","0","","","","","","","",""
"","html-keyboard-response","231","958967","0.0-121.0-1.0","""event"",""trial"",""time""
""fullscreenenter"",""0"",""4212""
","
","
","""event"",""trial"",""time""
""fullscreenenter"",""0"",""4212""
","
","null","<p></p>","null","","","","","","","","","","","","","","","","","","","","","","",""
"","do_trial","232","964141","0.0-122.0-0.0","""event"",""trial"",""time""
""fullscreenenter"",""0"",""4212""
","
","
","""event"",""trial"",""time""
""fullscreenenter"",""0"",""4212""
","
","547.0999999996275","","","","","","","","50","0,1,1","1","mountain","56","probe-121","0.1276581820017534","0.40450913712851466","0.5188840004718794","1","","","","","","","",""
"","html-keyboard-response","233","965149","0.0-122.0-1.0","""event"",""trial"",""time""
""fullscreenenter"",""0"",""4212""
","
","
","""event"",""trial"",""time""
""fullscreenenter"",""0"",""4212""
","
","null","<p></p>","null","","","","","","","","","","","","","","","","","","","","","","",""
"","do_trial","234","970156","0.0-123.0-0.0","""event"",""trial"",""time""
""fullscreenenter"",""0"",""4212""
","
","
","""event"",""trial"",""time""
""fullscreenenter"",""0"",""4212""
","
","371.8999999994412","","","","","","","","51","0,1,1","1","mountain","57","probe-122","0.12744084686500942","0.23797084994893575","0.6052403344470113","1","","","","","","","",""
"","html-keyboard-response","235","971162","0.0-123.0-1.0","""event"",""trial"",""time""
""fullscreenenter"",""0"",""4212""
","
","
","""event"",""trial"",""time""
""fullscreenenter"",""0"",""4212""
","
","null","<p></p>","null","","","","","","","","","","","","","","","","","","","","","","",""
"","do_trial","236","977180","0.0-124.0-0.0","""event"",""trial"",""time""
""fullscreenenter"",""0"",""4212""
","
","
","""event"",""trial"",""time""
""fullscreenenter"",""0"",""4212""
","
","1395.7999999998137","","","","","","","","49","1,0,1","1","mountain","58","probe-131","0.13292551019018023","0.2005373939087932","0.567177746587873","1","","","","","","","",""
"","html-keyboard-response","237","978187","0.0-124.0-1.0","""event"",""trial"",""time""
""fullscreenenter"",""0"",""4212""
","
","
","""event"",""trial"",""time""
""fullscreenenter"",""0"",""4212""
","
","null","<p></p>","null","","","","","","","","","","","","","","","","","","","","","","",""
"","do_trial","238","984146","0.0-125.0-0.0","""event"",""trial"",""time""
""fullscreenenter"",""0"",""4212""
","
","
","""event"",""trial"",""time""
""fullscreenenter"",""0"",""4212""
","
","1319.0999999996275","","","","","","","","50","0,1,1","1","mountain","59","probe-202","0.1861795534226362","0.1903789074813608","0.7342627745290937","1","","","","","","","",""
"","html-keyboard-response","239","985154","0.0-125.0-1.0","""event"",""trial"",""time""
""fullscreenenter"",""0"",""4212""
","
","
","""event"",""trial"",""time""
""fullscreenenter"",""0"",""4212""
","
","null","<p></p>","null","","","","","","","","","","","","","","","","","","","","","","",""
"","do_trial","240","990190","0.0-126.0-0.0","""event"",""trial"",""time""
""fullscreenenter"",""0"",""4212""
","
","
","""event"",""trial"",""time""
""fullscreenenter"",""0"",""4212""
","
","413.20000000018626","","","","","","","","51","0,0,1","1","mountain","60","probe-205","0.1402311909532282","0.31016809875193097","0.7221984455961191","1","","","","","","","",""
"","html-keyboard-response","241","991197","0.0-126.0-1.0","""event"",""trial"",""time""
""fullscreenenter"",""0"",""4212""
","
","
","""event"",""trial"",""time""
""fullscreenenter"",""0"",""4212""
","
","null","<p></p>","null","","","","","","","","","","","","","","","","","","","","","","",""
"","do_trial","242","996258","0.0-127.0-0.0","""event"",""trial"",""time""
""fullscreenenter"",""0"",""4212""
","
","
","""event"",""trial"",""time""
""fullscreenenter"",""0"",""4212""
","
","432.5","","","","","","","","49","0,0,1","1","mountain","61","probe-223","0.196334806138408","0.3595043701232266","0.705769960258887","0","","","","","","","",""
"","html-keyboard-response","243","997267","0.0-127.0-1.0","""event"",""trial"",""time""
""fullscreenenter"",""0"",""4212""
","
","
","""event"",""trial"",""time""
""fullscreenenter"",""0"",""4212""
","
","null","<p></p>","null","","","","","","","","","","","","","","","","","","","","","","",""
"","do_trial","244","1002389","0.0-128.0-0.0","""event"",""trial"",""time""
""fullscreenenter"",""0"",""4212""
","
","
","""event"",""trial"",""time""
""fullscreenenter"",""0"",""4212""
","
","497.09999999962747","","","","","","","","50","0,1,1","1","mountain","62","probe-174","0.3164526060519708","0.37994810988394706","0.6188748663953348","1","","","","","","","",""
"","html-keyboard-response","245","1003397","0.0-128.0-1.0","""event"",""trial"",""time""
""fullscreenenter"",""0"",""4212""
","
","
","""event"",""trial"",""time""
""fullscreenenter"",""0"",""4212""
","
","null","<p></p>","null","","","","","","","","","","","","","","","","","","","","","","",""
"","do_trial","246","1008037","0.0-129.0-0.0","""event"",""trial"",""time""
""fullscreenenter"",""0"",""4212""
","
","
","""event"",""trial"",""time""
""fullscreenenter"",""0"",""4212""
","
","2.2000000001862645","","","","","","","","51","0,0,1","1","mountain","63","probe-201","0.28277313015925015","0.3208723219703481","0.6152143327407916","1","","","","","","","",""
"","html-keyboard-response","247","1009045","0.0-129.0-1.0","""event"",""trial"",""time""
""fullscreenenter"",""0"",""4212""
","
","
","""event"",""trial"",""time""
""fullscreenenter"",""0"",""4212""
","
","null","<p></p>","null","","","","","","","","","","","","","","","","","","","","","","",""
"","do_trial","248","1014060","0.0-130.0-0.0","""event"",""trial"",""time""
""fullscreenenter"",""0"",""4212""
","
","
","""event"",""trial"",""time""
""fullscreenenter"",""0"",""4212""
","
","391.79999999981374","","","","","","","","51","1,0,1","1","mountain","64","probe-125","0.20779551586412243","0.30291689233889135","0.6922228440002158","1","","","","","","","",""
"","html-keyboard-response","249","1015066","0.0-130.0-1.0","""event"",""trial"",""time""
""fullscreenenter"",""0"",""4212""
","
","
","""event"",""trial"",""time""
""fullscreenenter"",""0"",""4212""
","
","null","<p></p>","null","","","","","","","","","","","","","","","","","","","","","","",""
"","do_trial","250","1020189","0.0-131.0-0.0","""event"",""trial"",""time""
""fullscreenenter"",""0"",""4212""
","
","
","""event"",""trial"",""time""
""fullscreenenter"",""0"",""4212""
","
","487.30000000074506","","","","","","","","50","0,1,1","1","mountain","65","probe-229","0.16255820198153875","0.40810294737449954","0.7831642510622489","1","","","","","","","",""
"","html-keyboard-response","251","1021198","0.0-131.0-1.0","""event"",""trial"",""time""
""fullscreenenter"",""0"",""4212""
","
","
","""event"",""trial"",""time""
""fullscreenenter"",""0"",""4212""
","
","null","<p></p>","null","","","","","","","","","","","","","","","","","","","","","","",""
"","do_trial","252","1026371","0.0-132.0-0.0","""event"",""trial"",""time""
""fullscreenenter"",""0"",""4212""
","
","
","""event"",""trial"",""time""
""fullscreenenter"",""0"",""4212""
","
","542.7000000001863","","","","","","","","49","1,0,0","1","mountain","66","probe-196","0.20113072516810995","0.3899747160671433","0.7367547762479982","1","","","","","","","",""
"","html-keyboard-response","253","1027380","0.0-132.0-1.0","""event"",""trial"",""time""
""fullscreenenter"",""0"",""4212""
","
","
","""event"",""trial"",""time""
""fullscreenenter"",""0"",""4212""
","
","null","<p></p>","null","","","","","","","","","","","","","","","","","","","","","","",""
"","do_trial","254","1032538","0.0-133.0-0.0","""event"",""trial"",""time""
""fullscreenenter"",""0"",""4212""
","
","
","""event"",""trial"",""time""
""fullscreenenter"",""0"",""4212""
","
","531.7999999998137","","","","","","","","49","0,0,0","1","mountain","67","probe-145","0.3795996705866786","0.42138502673681744","0.7041668301773707","0","","","","","","","",""
"","html-keyboard-response","255","1033546","0.0-133.0-1.0","""event"",""trial"",""time""
""fullscreenenter"",""0"",""4212""
","
","
","""event"",""trial"",""time""
""fullscreenenter"",""0"",""4212""
","
","null","<p></p>","null","","","","","","","","","","","","","","","","","","","","","","",""
"","do_trial","256","1038633","0.0-134.0-0.0","""event"",""trial"",""time""
""fullscreenenter"",""0"",""4212""
","
","
","""event"",""trial"",""time""
""fullscreenenter"",""0"",""4212""
","
