success,trial_type,trial_index,time_elapsed,internal_node_id,interactions,blur_events,focus_events,fullscreenenter_events,fullscreenexit_events,rt,stimulus,key_press,subject_id,participant_id,age,gender,prompt,response,choice_outcomes,context_n,context_img_id,trial_n,probe_img_id,pR_red,pR_white,pR_black,outcome,contextArray_ind,validImageProbes,invalidImageProbes,pRew_Red,pRew_White,pRew_Black,availableForMemProbe,choice_blocks
TRUE,fullscreen,0,4143,0.0-0.0,"""event"",""trial"",""time""
""fullscreenenter"",""0"",""3151""
","
","
","""event"",""trial"",""time""
""fullscreenenter"",""0"",""3151""
","
",,,,,,,,,,,,,,,,,,,,,,,,,,
,pavlovia,1,4150,0.0-1.0,"""event"",""trial"",""time""
""fullscreenenter"",""0"",""3151""
","
","
","""event"",""trial"",""time""
""fullscreenenter"",""0"",""3151""
","
",,,,,,,,,,,,,,,,,,,,,,,,,,
,instruc1,2,49270,0.0-2.0,"""event"",""trial"",""time""
""fullscreenenter"",""0"",""3151""
","
","
","""event"",""trial"",""time""
""fullscreenenter"",""0"",""3151""
","
",null,run_exp/static/audio/clip_1_welcome.m4a,null,355,70,22,Female,"<div class='center'><p>Welcome! This is the first part of the study. It will last ~30 minutes. In part 1 and part 2 of the study, you are the head captain of a pirate ship traveling around the world to different islands. You will play a few different games throughout these two parts. Here is an overview of them:</p><br><p>Part 1 (today)</p><p>1. Instructions, practice game, and quiz</p><p>2. Pick a pirate game on 6 different islands</p><br><p>Part 2 (tomorrow)</p><p>3. Pick a pirate game and memory game</p><p>4. Where did you see this ship? </p></div>",,,,,,,,,,,,,,,,,,
,html-keyboard-response,3,49646,0.0-3.0,"""event"",""trial"",""time""
""fullscreenenter"",""0"",""3151""
","
","
","""event"",""trial"",""time""
""fullscreenenter"",""0"",""3151""
","
",373.5,"<div class='center'><p>Welcome! This is the first part of the study. It will last ~30 minutes. In part 1 and part 2 of the study, you are the head captain of a pirate ship traveling around the world to different islands. You will play a few different games throughout these two parts. Here is an overview of them:</p><br><p>Part 1 (today)</p><p>1. Instructions, practice game, and quiz</p><p>2. Pick a pirate game on 6 different islands</p><br><p>Part 2 (tomorrow)</p><p>3. Pick a pirate game and memory game</p><p>4. Where did you see this ship? </p><p><b>[Press the space bar to continue]</b></p></div>",32,,,,,,,,,,,,,,,,,,,,,,,
,instruc2,4,54965,0.0-4.0,"""event"",""trial"",""time""
""fullscreenenter"",""0"",""3151""
","
","
","""event"",""trial"",""time""
""fullscreenenter"",""0"",""3151""
","
",null,run_exp/static/audio/clip_2_different_places.m4a,null,,,,,"<div class='center'><p>Today, you’ll visit these 6 islands on your journey. You'll be able to see these islands from your ship.</p><p><img src='run_exp/static/images/contexts/all_contexts.png' height='500'></p></div>",,,,,,,,,,,,,,,,,,
,html-keyboard-response,5,56851,0.0-5.0,"""event"",""trial"",""time""
""fullscreenenter"",""0"",""3151""
","
","
","""event"",""trial"",""time""
""fullscreenenter"",""0"",""3151""
","
",1883.6,"<div class='center'><p>Today, you’ll visit these 6 islands on your journey. You'll be able to see these islands from your ship.</p><p><img src='run_exp/static/images/contexts/all_contexts.png' height='500'></p><p><b>[Press the space bar to continue]</b></p></div>",32,,,,,,,,,,,,,,,,,,,,,,,
,instruc3,6,66549,0.0-6.0,"""event"",""trial"",""time""
""fullscreenenter"",""0"",""3151""
","
","
","""event"",""trial"",""time""
""fullscreenenter"",""0"",""3151""
","
",null,run_exp/static/audio/clip_3_goal_of_game_1.m4a,null,,,,,"<div class='center'><p> The pirates on your ship will rob other ships as they leave the island.</p> These ships have just sold their goods to the islanders, so they will be filled with lots and lots of gold.</p><p><img src='run_exp/static/images/tutorial/ship_center.png' height='400'></p></div>",,,,,,,,,,,,,,,,,,
,html-keyboard-response,7,67388,0.0-7.0,"""event"",""trial"",""time""
""fullscreenenter"",""0"",""3151""
","
","
","""event"",""trial"",""time""
""fullscreenenter"",""0"",""3151""
","
",836.3,"<div class='center'><p> The pirates on your ship will rob other ships as they leave the island.</p> These ships have just sold their goods to the islanders, so they will be filled with lots and lots of gold.</p><p><img src='run_exp/static/images/tutorial/ship_center.png' height='400'></p><p><b>[Press the space bar to continue]</b></p></div>",32,,,,,,,,,,,,,,,,,,,,,,,
,instruc4,8,95392,0.0-8.0,"""event"",""trial"",""time""
""fullscreenenter"",""0"",""3151""
","
","
","""event"",""trial"",""time""
""fullscreenenter"",""0"",""3151""
","
",null,run_exp/static/audio/clip_4_goal_of_game_2.m4a,null,,,,,"<div class='center'><p>As the head captain, you do not have to rob any ships yourself. Another pirate will be doing the robbing for you. First, you will choose a pirate to rob the next ship.</p><p><img src='run_exp/static/images/tutorial/pirates_all_crop.png' height='200'></p><p>Then, you'll see if the pirate successfully robbed the ship of their gold. If they were successful, then you'll get a stack of gold coins like this:</p><p><img src='run_exp/static/images/tutorial/reward.png' height='150'></p><p> If they were <b>not</b> successful, then you'll get no gold coins, and you'll see a big red x like this: </p><p><img src='run_exp/static/images/tutorial/reward_no.png' height='150'></p><p> How much bonus money you make is based on how many gold coins you collect.</p><div>",,,,,,,,,,,,,,,,,,
,html-keyboard-response,9,104540,0.0-9.0,"""event"",""trial"",""time""
""fullscreenenter"",""0"",""3151""
","
","
","""event"",""trial"",""time""
""fullscreenenter"",""0"",""3151""
","
",9145.8,"<div class='center'><p>As the head captain, you do not have to rob any ships yourself. Another pirate will be doing the robbing for you. First, you will choose a pirate to rob the next ship.</p><p><img src='run_exp/static/images/tutorial/pirates_all_crop.png' height='200'></p><p>Then, you'll see if the pirate successfully robbed the ship of their gold. If they were successful, then you'll get a stack of gold coins like this:</p><p><img src='run_exp/static/images/tutorial/reward.png' height='150'></p><p> If they were <b>not</b> successful, then you'll get no gold coins, and you'll see a big red x like this: </p><p><img src='run_exp/static/images/tutorial/reward_no.png' height='150'></p><p> How much bonus money you make is based on how many gold coins you collect.</p<p><b>[Press the space bar to continue]</b></p></div>",32,,,,,,,,,,,,,,,,,,,,,,,
,instruc5,10,122491,0.0-10.0,"""event"",""trial"",""time""
""fullscreenenter"",""0"",""3151""
","
","
","""event"",""trial"",""time""
""fullscreenenter"",""0"",""3151""
","
",17948.3,run_exp/static/audio/clip_5_probabilistic.m4a,49,,,,,"<div class='center'><p>Even the most skilled pirate can not rob EVERY ship.</p><p> Some ships will have very strong protections against pirate attacks.</p><p> Blue beard, here, is very, very good at robbing ships, but he won't be successful every time he tries to rob one.</p><p> You can press the <b>‘1’</b> key on the keyboard to choose him.</p><p> Try choosing him 10 times to see how often he succeeds at robbing a ship. </p><p><img src='run_exp/static/images/tutorial/blue.png' height='500'></p></div>",,,,,,,,,,,,,,,,,,
,html-keyboard-response,11,123998,0.0-11.0,"""event"",""trial"",""time""
""fullscreenenter"",""0"",""3151""
","
","
","""event"",""trial"",""time""
""fullscreenenter"",""0"",""3151""
","
",null,<div class='center'><p><img src='run_exp/static/images/tutorial/blue_win.png' height='500'></p></div>,null,,,,,,,,,,,,,,,,,,,,,,,
,html-keyboard-response,12,124821,0.0-12.0,"""event"",""trial"",""time""
""fullscreenenter"",""0"",""3151""
","
","
","""event"",""trial"",""time""
""fullscreenenter"",""0"",""3151""
","
",820.1,<div class='center'><img src='run_exp/static/images/tutorial/blue.png' height='500'></p></div>,49,,,,,,,,,,,,,,,,,,,,,,,
,html-keyboard-response,13,126325,0.0-13.0,"""event"",""trial"",""time""
""fullscreenenter"",""0"",""3151""
","
","
","""event"",""trial"",""time""
""fullscreenenter"",""0"",""3151""
","
",null,<div class='center'><p><img src='run_exp/static/images/tutorial/blue_win.png' height='500'></p></div>,null,,,,,,,,,,,,,,,,,,,,,,,
,html-keyboard-response,14,126545,0.0-14.0,"""event"",""trial"",""time""
""fullscreenenter"",""0"",""3151""
","
","
","""event"",""trial"",""time""
""fullscreenenter"",""0"",""3151""
","
",218.7,<div class='center'><img src='run_exp/static/images/tutorial/blue.png' height='500'></p></div>,49,,,,,,,,,,,,,,,,,,,,,,,
,html-keyboard-response,15,128052,0.0-15.0,"""event"",""trial"",""time""
""fullscreenenter"",""0"",""3151""
","
","
","""event"",""trial"",""time""
""fullscreenenter"",""0"",""3151""
","
",null,<div class='center'><p><img src='run_exp/static/images/tutorial/blue_win.png' height='500'></p></div>,null,,,,,,,,,,,,,,,,,,,,,,,
,html-keyboard-response,16,128181,0.0-16.0,"""event"",""trial"",""time""
""fullscreenenter"",""0"",""3151""
","
","
","""event"",""trial"",""time""
""fullscreenenter"",""0"",""3151""
","
",127.5,<div class='center'><img src='run_exp/static/images/tutorial/blue.png' height='500'></p></div>,49,,,,,,,,,,,,,,,,,,,,,,,
,html-keyboard-response,17,129688,0.0-17.0,"""event"",""trial"",""time""
""fullscreenenter"",""0"",""3151""
","
","
","""event"",""trial"",""time""
""fullscreenenter"",""0"",""3151""
","
",null,<div class='center'><p><img src='run_exp/static/images/tutorial/blue_no_win.png' height='500'></p></div>,null,,,,,,,,,,,,,,,,,,,,,,,
,html-keyboard-response,18,129800,0.0-18.0,"""event"",""trial"",""time""
""fullscreenenter"",""0"",""3151""
","
","
","""event"",""trial"",""time""
""fullscreenenter"",""0"",""3151""
","
",110.2,<div class='center'><img src='run_exp/static/images/tutorial/blue.png' height='500'></p></div>,49,,,,,,,,,,,,,,,,,,,,,,,
,html-keyboard-response,19,131302,0.0-19.0,"""event"",""trial"",""time""
""fullscreenenter"",""0"",""3151""
","
","
","""event"",""trial"",""time""
""fullscreenenter"",""0"",""3151""
","
",null,<div class='center'><p><img src='run_exp/static/images/tutorial/blue_win.png' height='500'></p></div>,null,,,,,,,,,,,,,,,,,,,,,,,
,html-keyboard-response,20,131517,0.0-20.0,"""event"",""trial"",""time""
""fullscreenenter"",""0"",""3151""
","
","
","""event"",""trial"",""time""
""fullscreenenter"",""0"",""3151""
","
",212.6,<div class='center'><img src='run_exp/static/images/tutorial/blue.png' height='500'></p></div>,49,,,,,,,,,,,,,,,,,,,,,,,
,html-keyboard-response,21,133020,0.0-21.0,"""event"",""trial"",""time""
""fullscreenenter"",""0"",""3151""
","
","
","""event"",""trial"",""time""
""fullscreenenter"",""0"",""3151""
","
",null,<div class='center'><p><img src='run_exp/static/images/tutorial/blue_win.png' height='500'></p></div>,null,,,,,,,,,,,,,,,,,,,,,,,
,html-keyboard-response,22,133441,0.0-22.0,"""event"",""trial"",""time""
""fullscreenenter"",""0"",""3151""
","
","
","""event"",""trial"",""time""
""fullscreenenter"",""0"",""3151""
","
",418.8,<div class='center'><img src='run_exp/static/images/tutorial/blue.png' height='500'></p></div>,49,,,,,,,,,,,,,,,,,,,,,,,
,html-keyboard-response,23,134948,0.0-23.0,"""event"",""trial"",""time""
""fullscreenenter"",""0"",""3151""
","
","
","""event"",""trial"",""time""
""fullscreenenter"",""0"",""3151""
","
",null,<div class='center'><p><img src='run_exp/static/images/tutorial/blue_win.png' height='500'></p></div>,null,,,,,,,,,,,,,,,,,,,,,,,
,html-keyboard-response,24,135181,0.0-24.0,"""event"",""trial"",""time""
""fullscreenenter"",""0"",""3151""
","
","
","""event"",""trial"",""time""
""fullscreenenter"",""0"",""3151""
","
",231.1,<div class='center'><img src='run_exp/static/images/tutorial/blue.png' height='500'></p></div>,49,,,,,,,,,,,,,,,,,,,,,,,
,html-keyboard-response,25,136687,0.0-25.0,"""event"",""trial"",""time""
""fullscreenenter"",""0"",""3151""
","
","
","""event"",""trial"",""time""
""fullscreenenter"",""0"",""3151""
","
",null,<div class='center'><p><img src='run_exp/static/images/tutorial/blue_no_win.png' height='500'></p></div>,null,,,,,,,,,,,,,,,,,,,,,,,
,html-keyboard-response,26,136756,0.0-26.0,"""event"",""trial"",""time""
""fullscreenenter"",""0"",""3151""
","
","
","""event"",""trial"",""time""
""fullscreenenter"",""0"",""3151""
","
",66.5,<div class='center'><img src='run_exp/static/images/tutorial/blue.png' height='500'></p></div>,49,,,,,,,,,,,,,,,,,,,,,,,
,html-keyboard-response,27,138260,0.0-27.0,"""event"",""trial"",""time""
""fullscreenenter"",""0"",""3151""
","
","
","""event"",""trial"",""time""
""fullscreenenter"",""0"",""3151""
","
",null,<div class='center'><p><img src='run_exp/static/images/tutorial/blue_win.png' height='500'></p></div>,null,,,,,,,,,,,,,,,,,,,,,,,
,html-keyboard-response,28,138545,0.0-28.0,"""event"",""trial"",""time""
""fullscreenenter"",""0"",""3151""
","
","
","""event"",""trial"",""time""
""fullscreenenter"",""0"",""3151""
","
",283.2,<div class='center'><img src='run_exp/static/images/tutorial/blue.png' height='500'></p></div>,49,,,,,,,,,,,,,,,,,,,,,,,
,html-keyboard-response,29,140052,0.0-29.0,"""event"",""trial"",""time""
""fullscreenenter"",""0"",""3151""
","
","
","""event"",""trial"",""time""
""fullscreenenter"",""0"",""3151""
","
",null,<div class='center'><p><img src='run_exp/static/images/tutorial/blue_win.png' height='500'></p></div>,null,,,,,,,,,,,,,,,,,,,,,,,
,instruc6,30,145468,0.0-30.0,"""event"",""trial"",""time""
""fullscreenenter"",""0"",""3151""
","
","
","""event"",""trial"",""time""
""fullscreenenter"",""0"",""3151""
","
",null,run_exp/static/audio/clip_6_blue_beard_outcome.m4a,null,,,,,"<div class='center'><p> See, he succeeded in robbing the ships most of the time but not every time. </p></div>",,,,,,,,,,,,,,,,,,
,html-keyboard-response,31,146835,0.0-31.0,"""event"",""trial"",""time""
""fullscreenenter"",""0"",""3151""
","
","
","""event"",""trial"",""time""
""fullscreenenter"",""0"",""3151""
","
",1365.8,"<div class='center'><p> See, he succeeded in robbing the ships most of the time but not every time. </p><p><b>[Press the space bar to continue]</b></p></div>",32,,,,,,,,,,,,,,,,,,,,,,,
,audio-keyboard-response,32,151853,0.0-32.0,"""event"",""trial"",""time""
""fullscreenenter"",""0"",""3151""
","
","
","""event"",""trial"",""time""
""fullscreenenter"",""0"",""3151""
","
",5015.9,run_exp/static/audio/clip_7_pick_pirate.m4a,49,,,,,,,,,,,,,,,,,,,,,,,
,audio-keyboard-response,33,153426,0.0-33.0-0.0,"""event"",""trial"",""time""
""fullscreenenter"",""0"",""3151""
","
","
","""event"",""trial"",""time""
""fullscreenenter"",""0"",""3151""
","
",1569.3,run_exp/static/audio/clip_8_chosen_pirate_win.m4a,32,,,,,,,,,,,,,,,,,,,,,,,
,audio-keyboard-response,34,154040,0.0-33.0-1.0,"""event"",""trial"",""time""
""fullscreenenter"",""0"",""3151""
","
","
","""event"",""trial"",""time""
""fullscreenenter"",""0"",""3151""
","
",611.4,run_exp/static/audio/clip_9_pick_a_pirate_again.m4a,50,,,,,,,,,,,,,,,,,,,,,,,
,audio-keyboard-response,35,154899,0.0-34.0-0.0,"""event"",""trial"",""time""
""fullscreenenter"",""0"",""3151""
","
","
","""event"",""trial"",""time""
""fullscreenenter"",""0"",""3151""
","
",857.2,run_exp/static/audio/clip_10_chosen_pirate_loss.m4a,32,,,,,,,,,,,,,,,,,,,,,,,
,instruc9,36,160401,0.0-35.0-0.0,"""event"",""trial"",""time""
""fullscreenenter"",""0"",""3151""
","
","
","""event"",""trial"",""time""
""fullscreenenter"",""0"",""3151""
","
",null,run_exp/static/audio/clip_11_time_out.m4a,null,,,,,"<div class='center'><p>If you don’t make your choice fast enough, you’ll have to wait a few seconds before you can make another one. </p><p><img src='run_exp/static/images/miscellaneous/hurry_up.png' height='500'></p></div>",,,,,,,,,,,,,,,,,,
,html-keyboard-response,37,161044,0.0-35.0-1.0,"""event"",""trial"",""time""
""fullscreenenter"",""0"",""3151""
","
","
","""event"",""trial"",""time""
""fullscreenenter"",""0"",""3151""
","
",640.5,"<div class='center'><p>If you don’t make your choice fast enough, you’ll have to wait a few seconds before you can make another one. </p><p><img src='run_exp/static/images/miscellaneous/hurry_up.png' height='500'></p><p><b>[Press the space bar to continue]</b></p></div>",32,,,,,,,,,,,,,,,,,,,,,,,
,instruc10,38,200145,0.0-35.0-2.0,"""event"",""trial"",""time""
""fullscreenenter"",""0"",""3151""
","
","
","""event"",""trial"",""time""
""fullscreenenter"",""0"",""3151""
","
",null,run_exp/static/audio/clip_12_probe.m4a,null,,,,,"<div class='center'><p>Once you've chosen a pirate, you’ll be shown the ship they are robbing. You will never rob the same ship twice. Ships can be told apart from one another by the image on them. These are the goods that they sell. See, this ship has a travel mug on it. </p><p> You’ll have to remember which island you saw each ship on. You will win more gold coins and hence more bonus money if you remember correctly! To help you remember, you can imagine a story. For example, here, you could imagine a mug full of water in the desert. Or, as another example, if on the forest island, your pirate robbed a ship with an apple on it, you could imagine an apple falling from a tree in the forest. </p><p><img src='run_exp/static/images/tutorial/example_probe.png' height='500'></p></div>",,,,,,,,,,,,,,,,,,
,html-keyboard-response,39,201194,0.0-35.0-3.0,"""event"",""trial"",""time""
""fullscreenenter"",""0"",""3151""
","
","
","""event"",""trial"",""time""
""fullscreenenter"",""0"",""3151""
","
",1047.4,"<div class='center'><p>Once you've chosen a pirate, you’ll be shown the ship they are robbing. You will never rob the same ship twice. Ships can be told apart from one another by the image on them. These are the goods that they sell. See, this ship has a travel mug on it. </p><p> You’ll have to remember which island you saw each ship on. You will win more gold coins and hence more bonus money if you remember correctly! To help you remember, you can imagine a story. For example, here, you could imagine a mug full of water in the desert. Or, as another example, if on the forest island, your pirate robbed a ship with an apple on it, you could imagine an apple falling from a tree in the forest. </p><p><img src='run_exp/static/images/tutorial/example_probe.png' height='500'></p><p><b>[Press the space bar to continue]</b></p></div>",32,,,,,,,,,,,,,,,,,,,,,,,
,instruc11,40,217595,0.0-35.0-4.0,"""event"",""trial"",""time""
""fullscreenenter"",""0"",""3151""
","
","
","""event"",""trial"",""time""
""fullscreenenter"",""0"",""3151""
","
",null,run_exp/static/audio/clip_13_changepoint.m4a,null,,,,,"<div class='center'><p>How successful a pirate is at robbing ships will depend on the island you’re on.</p><p> A pirate may have visited this island many times before and gained a lot of practice robbing ships there.</p><p>So, they’re more likely to be successful than a pirate who has never visited the island before.</p></div>",,,,,,,,,,,,,,,,,,
,html-keyboard-response,41,217923,0.0-35.0-5.0,"""event"",""trial"",""time""
""fullscreenenter"",""0"",""3151""
","
","
","""event"",""trial"",""time""
""fullscreenenter"",""0"",""3151""
","
",326.3,"<div class='center'><p>How successful a pirate is at robbing ships will depend on the island you’re on.</p><p> A pirate may have visited this island many times before and gained a lot of practice robbing ships there.</p><p>So, they’re more likely to be successful than a pirate who has never visited the island before.</p><p><b>[Press the space bar to continue]</b></p></div>",32,,,,,,,,,,,,,,,,,,,,,,,
,instruc12,42,259003,0.0-35.0-6.0,"""event"",""trial"",""time""
""fullscreenenter"",""0"",""3151""
","
","
","""event"",""trial"",""time""
""fullscreenenter"",""0"",""3151""
","
",null,run_exp/static/audio/clip_14_drift.m4a,null,,,,,"<div class='center'><p>How successful a pirate is at robbing ships can also change over the time spent on the island. </p><p> Ships may hear from islanders about the pirates coming and will improve their protections against the attack. This may make it harder to rob them.</p><p> Ships may also become lazy and weaken the strength of their protections. This may make it easier to rob them.</p><br><p>Things are always changing on the high seas! So, try your best to pay attention!</p><p><img src='run_exp/static/images/tutorial/contingency.png' height='500'></p></div>",,,,,,,,,,,,,,,,,,
,html-keyboard-response,43,259691,0.0-35.0-7.0,"""event"",""trial"",""time""
""fullscreenenter"",""0"",""3151""
","
","
","""event"",""trial"",""time""
""fullscreenenter"",""0"",""3151""
","
",685.5,"<div class='center'><p>How successful a pirate is at robbing ships can also change over the time spent on the island. </p><p> Ships may hear from islanders about the pirates coming and will improve their protections against the attack. This may make it harder to rob them.</p><p> Ships may also become lazy and weaken the strength of their protections. This may make it easier to rob them.</p><br><p>Things are always changing on the high seas! So, try your best to pay attention!</p><p><img src='run_exp/static/images/tutorial/contingency.png' height='500'></p><p><b>[Press the space bar to continue]</b></p></div>",32,,,,,,,,,,,,,,,,,,,,,,,
,instruc13,44,294885,0.0-35.0-8.0,"""event"",""trial"",""time""
""fullscreenenter"",""0"",""3151""
","
","
","""event"",""trial"",""time""
""fullscreenenter"",""0"",""3151""
","
",null,run_exp/static/audio/clip_15_summary.m4a,null,,,,,"<div class='center'><p>Let's go over the instructions quickly again. You have two important things to do: </p><b><p> 1. Pick the pirate who is the best at robbing ships on the current island. </p></b><b><p> 2. Remember on which island a ship was robbed.</p> </b><p>The amount of bonus money you can win depends on both.</p><p><br><p>Let’s try a practice game. The game will start by showing you the pirates. First, pick a pirate using the <b> 1, 2, 3 </b> keys on your keyboard. When you are shown a ship, try to remember which island you’re on by making up a story.</p><p>This is just a practice game, so you’re not playing for money. </p><p> Good luck! This game will be very difficult but try your best!</p></div>",,,,,,,,,,,,,,,,,,
,html-keyboard-response,45,295633,0.0-35.0-9.0,"""event"",""trial"",""time""
""fullscreenenter"",""0"",""3151""
","
","
","""event"",""trial"",""time""
""fullscreenenter"",""0"",""3151""
","
",746.6,"<div class='center'><p>Let's go over the instructions quickly again. You have two important things to do: </p><b><p> 1. Pick the pirate who is the best at robbing ships on the current island. </p></b><b><p> 2. Remember on which island a ship was robbed.</p> </b><p>The amount of bonus money you can win depends on both.</p><p><br><p>Let’s try a practice game. The game will start by showing you the pirates. First, pick a pirate using the <b> 1, 2, 3 </b> keys on your keyboard. When you are shown a ship, try to remember which island you’re on by making up a story.</p><p>This is just a practice game, so you’re not playing for money. </p><p> Good luck! This game will be very difficult but try your best!</p><p><b>[Press the space bar to continue]</b></p></div>",32,,,,,,,,,,,,,,,,,,,,,,,
,do_welcome,46,299647,0.0-35.0-10.0,"""event"",""trial"",""time""
""fullscreenenter"",""0"",""3151""
","
","
","""event"",""trial"",""time""
""fullscreenenter"",""0"",""3151""
","
",null,,,,,,,,null,,,,,,,,,,,,,,,,,
,do_trial,47,305234,0.0-35.0-11.0,"""event"",""trial"",""time""
""fullscreenenter"",""0"",""3151""
","
","
","""event"",""trial"",""time""
""fullscreenenter"",""0"",""3151""
","
",1071.7,,,,,,,,49,"1,0,0",,,,,,,,,,,,,,,,
,html-keyboard-response,48,306238,0.0-36.0-0.0,"""event"",""trial"",""time""
""fullscreenenter"",""0"",""3151""
","
","
","""event"",""trial"",""time""
""fullscreenenter"",""0"",""3151""
","
",null,<p></p>,null,,,,,,,,,,,,,,,,,,,,,,,
,do_trial,49,311142,0.0-36.0-1.0,"""event"",""trial"",""time""
""fullscreenenter"",""0"",""3151""
","
","
","""event"",""trial"",""time""
""fullscreenenter"",""0"",""3151""
","
",390.9,,,,,,,,49,"1,1,0",,,,,,,,,,,,,,,,
,html-keyboard-response,50,312149,0.0-37.0-0.0,"""event"",""trial"",""time""
""fullscreenenter"",""0"",""3151""
","
","
","""event"",""trial"",""time""
""fullscreenenter"",""0"",""3151""
","
",null,<p></p>,null,,,,,,,,,,,,,,,,,,,,,,,
,do_trial,51,316960,0.0-37.0-1.0,"""event"",""trial"",""time""
""fullscreenenter"",""0"",""3151""
","
","
","""event"",""trial"",""time""
""fullscreenenter"",""0"",""3151""
","
",297.1,,,,,,,,49,"1,0,1",,,,,,,,,,,,,,,,
,html-keyboard-response,52,317966,0.0-38.0-0.0,"""event"",""trial"",""time""
""fullscreenenter"",""0"",""3151""
","
","
","""event"",""trial"",""time""
""fullscreenenter"",""0"",""3151""
","
",null,<p></p>,null,,,,,,,,,,,,,,,,,,,,,,,
,do_trial,53,322745,0.0-38.0-1.0,"""event"",""trial"",""time""
""fullscreenenter"",""0"",""3151""
","
","
","""event"",""trial"",""time""
""fullscreenenter"",""0"",""3151""
","
",264.5,,,,,,,,49,"0,1,0",,,,,,,,,,,,,,,,
,html-keyboard-response,54,323750,0.0-39.0-0.0,"""event"",""trial"",""time""
""fullscreenenter"",""0"",""3151""
","
","
","""event"",""trial"",""time""
""fullscreenenter"",""0"",""3151""
","
",null,<p></p>,null,,,,,,,,,,,,,,,,,,,,,,,
,do_trial,55,328514,0.0-39.0-1.0,"""event"",""trial"",""time""
""fullscreenenter"",""0"",""3151""
","
","
","""event"",""trial"",""time""
""fullscreenenter"",""0"",""3151""
","
",249.2,,,,,,,,49,"1,0,0",,,,,,,,,,,,,,,,
,do_bye,56,330027,0.0-40.0-0.0,"""event"",""trial"",""time""
""fullscreenenter"",""0"",""3151""
","
","
","""event"",""trial"",""time""
""fullscreenenter"",""0"",""3151""
","
",null,,,,,,,,null,,,,,,,,,,,,,,,,,
,do_travel,57,339038,0.0-40.0-1.0,"""event"",""trial"",""time""
""fullscreenenter"",""0"",""3151""
","
","
","""event"",""trial"",""time""
""fullscreenenter"",""0"",""3151""
","
",null,,,,,,,,null,,,,,,,,,,,,,,,,,
,do_welcome,58,343052,0.0-40.0-2.0,"""event"",""trial"",""time""
""fullscreenenter"",""0"",""3151""
","
","
","""event"",""trial"",""time""
""fullscreenenter"",""0"",""3151""
","
",null,,,,,,,,null,,,,,,,,,,,,,,,,,
,do_trial,59,348529,0.0-40.0-3.0,"""event"",""trial"",""time""
""fullscreenenter"",""0"",""3151""
","
","
","""event"",""trial"",""time""
""fullscreenenter"",""0"",""3151""
","
",963.2,,,,,,,,50,"1,0,0",,,,,,,,,,,,,,,,
,html-keyboard-response,60,349531,0.0-41.0-0.0,"""event"",""trial"",""time""
""fullscreenenter"",""0"",""3151""
","
","
","""event"",""trial"",""time""
""fullscreenenter"",""0"",""3151""
","
",null,<p></p>,null,,,,,,,,,,,,,,,,,,,,,,,
,do_trial,61,354375,0.0-41.0-1.0,"""event"",""trial"",""time""
""fullscreenenter"",""0"",""3151""
","
","
","""event"",""trial"",""time""
""fullscreenenter"",""0"",""3151""
","
",328.8,,,,,,,,50,"1,0,1",,,,,,,,,,,,,,,,
,html-keyboard-response,62,355382,0.0-42.0-0.0,"""event"",""trial"",""time""
""fullscreenenter"",""0"",""3151""
","
","
","""event"",""trial"",""time""
""fullscreenenter"",""0"",""3151""
","
",null,<p></p>,null,,,,,,,,,,,,,,,,,,,,,,,
,do_trial,63,360105,0.0-42.0-1.0,"""event"",""trial"",""time""
""fullscreenenter"",""0"",""3151""
","
","
","""event"",""trial"",""time""
""fullscreenenter"",""0"",""3151""
","
",208.8,,,,,,,,50,"1,1,0",,,,,,,,,,,,,,,,
,html-keyboard-response,64,361112,0.0-43.0-0.0,"""event"",""trial"",""time""
""fullscreenenter"",""0"",""3151""
","
","
","""event"",""trial"",""time""
""fullscreenenter"",""0"",""3151""
","
",null,<p></p>,null,,,,,,,,,,,,,,,,,,,,,,,
,do_trial,65,367701,0.0-43.0-1.0,"""event"",""trial"",""time""
""fullscreenenter"",""0"",""3151""
","
","
","""event"",""trial"",""time""
""fullscreenenter"",""0"",""3151""
","
",2073.1,,,,,,,,49,"0,0,1",,,,,,,,,,,,,,,,
,html-keyboard-response,66,368705,0.0-44.0-0.0,"""event"",""trial"",""time""
""fullscreenenter"",""0"",""3151""
","
","
","""event"",""trial"",""time""
""fullscreenenter"",""0"",""3151""
","
",null,<p></p>,null,,,,,,,,,,,,,,,,,,,,,,,
,do_trial,67,373529,0.0-44.0-1.0,"""event"",""trial"",""time""
""fullscreenenter"",""0"",""3151""
","
","
","""event"",""trial"",""time""
""fullscreenenter"",""0"",""3151""
","
",307.5,,,,,,,,49,"1,0,1",,,,,,,,,,,,,,,,
,html-keyboard-response,68,373657,0.0-45.0-0.0,"""event"",""trial"",""time""
""fullscreenenter"",""0"",""3151""
","
","
","""event"",""trial"",""time""
""fullscreenenter"",""0"",""3151""
","
",120.9,<div class='center'><p><img src='run_exp/static/images/tutorial/prac_best_pirate.png'  height='500'></p></div>,51,,,,,,,,,,,,,,,,,,,,,,,
,html-keyboard-response,69,375394,0.0-46.0-0.0,"""event"",""trial"",""time""
""fullscreenenter"",""0"",""3151""
","
","
","""event"",""trial"",""time""
""fullscreenenter"",""0"",""3151""
","
",1735.1,<div class='center'><p>That's incorrect! Red beard was the best.</p><p><b>[Press the space bar to continue]</b></p></div>,32,,,,,,,,,,,,,,,,,,,,,,,
,html-keyboard-response,70,378627,0.0-46.0-1.0,"""event"",""trial"",""time""
""fullscreenenter"",""0"",""3151""
","
","
","""event"",""trial"",""time""
""fullscreenenter"",""0"",""3151""
","
",3232.1,<div class='center'><p><img src='run_exp/static/images/tutorial/prac_source.png'  height='500'></p></div>,50,,,,,,,,,,,,,,,,,,,,,,,
,html-keyboard-response,71,379488,0.0-47.0-0.0,"""event"",""trial"",""time""
""fullscreenenter"",""0"",""3151""
","
","
","""event"",""trial"",""time""
""fullscreenenter"",""0"",""3151""
","
",859.1,<div class='center'><p>That's correct! You saw this ship on the cavern island.</p><p><b>[Press the space bar to continue]</b></p></div>,32,,,,,,,,,,,,,,,,,,,,,,,
,quiz_beginning,72,390732,0.0-47.0-1.0,"""event"",""trial"",""time""
""fullscreenenter"",""0"",""3151""
","
","
","""event"",""trial"",""time""
""fullscreenenter"",""0"",""3151""
","
",null,run_exp/static/audio/clip_16_quiz_intro.m4a,null,,,,,"<div class='center'><p>Good job on the practice game! Now, you will be asked some true or false questions to make sure you really understand the rules of the game.</p><p> Press <b>'1'</b> on the keyboard for true and press <b>'2'</b> for false.</p></div>",,,,,,,,,,,,,,,,,,
,audio-keyboard-response,73,395684,0.0-47.0-2.0,"""event"",""trial"",""time""
""fullscreenenter"",""0"",""3151""
","
","
","""event"",""trial"",""time""
""fullscreenenter"",""0"",""3151""
","
",4950,run_exp/static/audio/clip_17_q1.m4a,49,,,,,,,,,,,,,,,,,,,,,,,
,correct,74,398092,0.0-48.0-0.0,"""event"",""trial"",""time""
""fullscreenenter"",""0"",""3151""
","
","
","""event"",""trial"",""time""
""fullscreenenter"",""0"",""3151""
","
",null,run_exp/static/audio/clip_18_correct.m4a,null,,,,,<div class='center'><p>That's correct!</p></div>,,,,,,,,,,,,,,,,,,
,html-keyboard-response,75,398704,0.0-48.0-1.0,"""event"",""trial"",""time""
""fullscreenenter"",""0"",""3151""
","
","
","""event"",""trial"",""time""
""fullscreenenter"",""0"",""3151""
","
",609.9,<div class='center'><p>That's correct!</p><p><b>[Press the space bar to continue]</b></p></div>,32,,,,,,,,,,,,,,,,,,,,,,,
,audio-keyboard-response,76,402254,0.0-48.0-2.0,"""event"",""trial"",""time""
""fullscreenenter"",""0"",""3151""
","
","
","""event"",""trial"",""time""
""fullscreenenter"",""0"",""3151""
","
",3549.2,run_exp/static/audio/clip_20_q2.m4a,50,,,,,,,,,,,,,,,,,,,,,,,
,correct,77,404663,0.0-49.0-0.0,"""event"",""trial"",""time""
""fullscreenenter"",""0"",""3151""
","
","
","""event"",""trial"",""time""
""fullscreenenter"",""0"",""3151""
","
",null,run_exp/static/audio/clip_18_correct.m4a,null,,,,,<div class='center'><p>That's correct!</p></div>,,,,,,,,,,,,,,,,,,
,html-keyboard-response,78,405333,0.0-49.0-1.0,"""event"",""trial"",""time""
""fullscreenenter"",""0"",""3151""
","
","
","""event"",""trial"",""time""
""fullscreenenter"",""0"",""3151""
","
",668.8,<div class='center'><p>That's correct!</p><p><b>[Press the space bar to continue]</b></p></div>,32,,,,,,,,,,,,,,,,,,,,,,,
,audio-keyboard-response,79,408186,0.0-49.0-2.0,"""event"",""trial"",""time""
""fullscreenenter"",""0"",""3151""
","
","
","""event"",""trial"",""time""
""fullscreenenter"",""0"",""3151""
","
",2851.7,run_exp/static/audio/clip_22_q3.m4a,50,,,,,,,,,,,,,,,,,,,,,,,
,correct,80,410593,0.0-50.0-0.0,"""event"",""trial"",""time""
""fullscreenenter"",""0"",""3151""
","
","
","""event"",""trial"",""time""
""fullscreenenter"",""0"",""3151""
","
",null,run_exp/static/audio/clip_18_correct.m4a,null,,,,,<div class='center'><p>That's correct!</p></div>,,,,,,,,,,,,,,,,,,
,html-keyboard-response,81,411067,0.0-50.0-1.0,"""event"",""trial"",""time""
""fullscreenenter"",""0"",""3151""
","
","
","""event"",""trial"",""time""
""fullscreenenter"",""0"",""3151""
","
",472.7,<div class='center'><p>That's correct!</p><p><b>[Press the space bar to continue]</b></p></div>,32,,,,,,,,,,,,,,,,,,,,,,,
,audio-keyboard-response,82,413064,0.0-50.0-2.0,"""event"",""trial"",""time""
""fullscreenenter"",""0"",""3151""
","
","
","""event"",""trial"",""time""
""fullscreenenter"",""0"",""3151""
","
",1995,run_exp/static/audio/clip_24_q4.m4a,49,,,,,,,,,,,,,,,,,,,,,,,
,correct,83,415500,0.0-51.0-0.0,"""event"",""trial"",""time""
""fullscreenenter"",""0"",""3151""
","
","
","""event"",""trial"",""time""
""fullscreenenter"",""0"",""3151""
","
",null,run_exp/static/audio/clip_18_correct.m4a,null,,,,,<div class='center'><p>That's correct!</p></div>,,,,,,,,,,,,,,,,,,
,html-keyboard-response,84,415520,0.0-51.0-1.0,"""event"",""trial"",""time""
""fullscreenenter"",""0"",""3151""
","
","
","""event"",""trial"",""time""
""fullscreenenter"",""0"",""3151""
","
",17.8,<div class='center'><p>That's correct!</p><p><b>[Press the space bar to continue]</b></p></div>,32,,,,,,,,,,,,,,,,,,,,,,,
,q_all_corr,85,424012,0.0-52.0-0.0,"""event"",""trial"",""time""
""fullscreenenter"",""0"",""3151""
","
","
","""event"",""trial"",""time""
""fullscreenenter"",""0"",""3151""
","
",null,run_exp/static/audio/clip_27_quiz_all_correct.m4a,null,,,,,<div class='center'><p>Good job! You’re now ready to move on to the real game! Remember this game will be difficult but don't get discouraged and try your best!</p></div>,,,,,,,,,,,,,,,,,,
,html-keyboard-response,86,424749,0.0-52.0-1.0,"""event"",""trial"",""time""
""fullscreenenter"",""0"",""3151""
","
","
","""event"",""trial"",""time""
""fullscreenenter"",""0"",""3151""
","
",734.5,<div class='center'><p>Good job! You’re now ready to move on to the real game! Remember this game will be difficult but don't get discouraged and try your best!</p><p><b>[Press the space bar to continue]</b></p></div>,32,,,,,,,,,,,,,,,,,,,,,,,
,do_welcome,87,428760,0.0-53.0-0.0,"""event"",""trial"",""time""
""fullscreenenter"",""0"",""3151""
","
","
","""event"",""trial"",""time""
""fullscreenenter"",""0"",""3151""
","
",null,,,,,,,,null,,,,,,,,,,,,,,,,,
,do_trial,88,434181,0.0-54.0-0.0,"""event"",""trial"",""time""
""fullscreenenter"",""0"",""3151""
","
","
","""event"",""trial"",""time""
""fullscreenenter"",""0"",""3151""
","
",866.9,,,,,,,,49,"1,0,0",0,city,0,probe-221,0.6,0.3,0.1,1,,,,,,,,
,html-keyboard-response,89,435190,0.0-54.0-1.0,"""event"",""trial"",""time""
""fullscreenenter"",""0"",""3151""
","
","
","""event"",""trial"",""time""
""fullscreenenter"",""0"",""3151""
","
",null,<p></p>,null,,,,,,,,,,,,,,,,,,,,,,,
,do_trial,90,440180,0.0-55.0-0.0,"""event"",""trial"",""time""
""fullscreenenter"",""0"",""3151""
","
","
","""event"",""trial"",""time""
""fullscreenenter"",""0"",""3151""
","
",436.8,,,,,,,,49,"1,0,0",0,city,1,probe-47,0.620808613,0.429538126,0.10918297,1,,,,,,,,
,html-keyboard-response,91,441188,0.0-55.0-1.0,"""event"",""trial"",""time""
""fullscreenenter"",""0"",""3151""
","
","
","""event"",""trial"",""time""
""fullscreenenter"",""0"",""3151""
","
",null,<p></p>,null,,,,,,,,,,,,,,,,,,,,,,,
,do_trial,92,445971,0.0-56.0-0.0,"""event"",""trial"",""time""
""fullscreenenter"",""0"",""3151""
","
","
","""event"",""trial"",""time""
""fullscreenenter"",""0"",""3151""
","
",234.2,,,,,,,,49,"0,0,0",0,city,2,probe-127,0.686944252,0.443085605,0.096114025,0,,,,,,,,
,html-keyboard-response,93,446978,0.0-56.0-1.0,"""event"",""trial"",""time""
""fullscreenenter"",""0"",""3151""
","
","
","""event"",""trial"",""time""
""fullscreenenter"",""0"",""3151""
","
",null,<p></p>,null,,,,,,,,,,,,,,,,,,,,,,,
,do_trial,94,451752,0.0-57.0-0.0,"""event"",""trial"",""time""
""fullscreenenter"",""0"",""3151""
","
","
","""event"",""trial"",""time""
""fullscreenenter"",""0"",""3151""
","
",227.2,,,,,,,,49,"1,1,0",0,city,3,probe-07,0.692840399,0.350939997,0.123003999,1,,,,,,,,
,html-keyboard-response,95,452759,0.0-57.0-1.0,"""event"",""trial"",""time""
""fullscreenenter"",""0"",""3151""
","
","
","""event"",""trial"",""time""
""fullscreenenter"",""0"",""3151""
","
",null,<p></p>,null,,,,,,,,,,,,,,,,,,,,,,,
,do_trial,96,457541,0.0-58.0-0.0,"""event"",""trial"",""time""
""fullscreenenter"",""0"",""3151""
","
","
","""event"",""trial"",""time""
""fullscreenenter"",""0"",""3151""
","
",233.9,,,,,,,,49,"0,0,0",0,city,4,probe-191,0.496889919,0.276650641,0.188358567,0,,,,,,,,
,html-keyboard-response,97,458548,0.0-58.0-1.0,"""event"",""trial"",""time""
""fullscreenenter"",""0"",""3151""
","
","
","""event"",""trial"",""time""
""fullscreenenter"",""0"",""3151""
","
",null,<p></p>,null,,,,,,,,,,,,,,,,,,,,,,,
,do_trial,98,463345,0.0-59.0-0.0,"""event"",""trial"",""time""
""fullscreenenter"",""0"",""3151""
","
","
","""event"",""trial"",""time""
""fullscreenenter"",""0"",""3151""
","
",241.2,,,,,,,,50,"0,1,0",0,city,5,probe-37,0.609325467,0.293043989,0.175677396,1,,,,,,,,
,html-keyboard-response,99,464352,0.0-59.0-1.0,"""event"",""trial"",""time""
""fullscreenenter"",""0"",""3151""
","
","
","""event"",""trial"",""time""
""fullscreenenter"",""0"",""3151""
","
",null,<p></p>,null,,,,,,,,,,,,,,,,,,,,,,,
,do_trial,100,469202,0.0-60.0-0.0,"""event"",""trial"",""time""
""fullscreenenter"",""0"",""3151""
","
","
","""event"",""trial"",""time""
""fullscreenenter"",""0"",""3151""
","
",304.2,,,,,,,,50,"0,1,0",0,city,6,probe-95,0.575824365,0.301646792,0.156830206,1,,,,,,,,
,html-keyboard-response,101,470210,0.0-60.0-1.0,"""event"",""trial"",""time""
""fullscreenenter"",""0"",""3151""
","
","
","""event"",""trial"",""time""
""fullscreenenter"",""0"",""3151""
","
",null,<p></p>,null,,,,,,,,,,,,,,,,,,,,,,,
,do_trial,102,475000,0.0-61.0-0.0,"""event"",""trial"",""time""
""fullscreenenter"",""0"",""3151""
","
","
","""event"",""trial"",""time""
""fullscreenenter"",""0"",""3151""
","
",241.3,,,,,,,,50,"1,0,0",0,city,7,probe-100,0.663156651,0.342204675,0.080581959,0,,,,,,,,
,html-keyboard-response,103,476008,0.0-61.0-1.0,"""event"",""trial"",""time""
""fullscreenenter"",""0"",""3151""
","
","
","""event"",""trial"",""time""
""fullscreenenter"",""0"",""3151""
","
",null,<p></p>,null,,,,,,,,,,,,,,,,,,,,,,,
,do_trial,104,480626,0.0-62.0-0.0,"""event"",""trial"",""time""
""fullscreenenter"",""0"",""3151""
","
","
","""event"",""trial"",""time""
""fullscreenenter"",""0"",""3151""
","
",66.6,,,,,,,,50,"1,0,0",0,city,8,probe-197,0.620048909,0.344400518,0.151459012,0,,,,,,,,
,html-keyboard-response,105,481634,0.0-62.0-1.0,"""event"",""trial"",""time""
""fullscreenenter"",""0"",""3151""
","
","
","""event"",""trial"",""time""
""fullscreenenter"",""0"",""3151""
","
",null,<p></p>,null,,,,,,,,,,,,,,,,,,,,,,,
,do_trial,106,486291,0.0-63.0-0.0,"""event"",""trial"",""time""
""fullscreenenter"",""0"",""3151""
","
","
","""event"",""trial"",""time""
""fullscreenenter"",""0"",""3151""
","
",99.5,,,,,,,,51,"1,1,0",0,city,9,probe-175,0.540621755,0.421443402,0.127422968,0,,,,,,,,
,html-keyboard-response,107,487298,0.0-63.0-1.0,"""event"",""trial"",""time""
""fullscreenenter"",""0"",""3151""
","
","
","""event"",""trial"",""time""
""fullscreenenter"",""0"",""3151""
","
",null,<p></p>,null,,,,,,,,,,,,,,,,,,,,,,,
,do_trial,108,492084,0.0-64.0-0.0,"""event"",""trial"",""time""
""fullscreenenter"",""0"",""3151""
","
","
","""event"",""trial"",""time""
""fullscreenenter"",""0"",""3151""
","
",229.3,,,,,,,,51,"1,1,0",0,city,10,probe-27,0.449124792,0.3653751,0.058948164,0,,,,,,,,
,html-keyboard-response,109,493091,0.0-64.0-1.0,"""event"",""trial"",""time""
""fullscreenenter"",""0"",""3151""
","
","
","""event"",""trial"",""time""
""fullscreenenter"",""0"",""3151""
","
",null,<p></p>,null,,,,,,,,,,,,,,,,,,,,,,,
,do_trial,110,497787,0.0-65.0-0.0,"""event"",""trial"",""time""
""fullscreenenter"",""0"",""3151""
","
","
","""event"",""trial"",""time""
""fullscreenenter"",""0"",""3151""
","
",145.5,,,,,,,,51,"1,1,0",0,city,11,probe-74,0.451038317,0.311143715,0.053214115,0,,,,,,,,
,html-keyboard-response,111,498792,0.0-65.0-1.0,"""event"",""trial"",""time""
""fullscreenenter"",""0"",""3151""
","
","
","""event"",""trial"",""time""
""fullscreenenter"",""0"",""3151""
","
",null,<p></p>,null,,,,,,,,,,,,,,,,,,,,,,,
,do_trial,112,503558,0.0-66.0-0.0,"""event"",""trial"",""time""
""fullscreenenter"",""0"",""3151""
","
","
","""event"",""trial"",""time""
""fullscreenenter"",""0"",""3151""
","
",211.2,,,,,,,,51,"0,1,0",0,city,12,probe-214,0.498310802,0.470815723,0.220580152,0,,,,,,,,
,html-keyboard-response,113,504565,0.0-66.0-1.0,"""event"",""trial"",""time""
""fullscreenenter"",""0"",""3151""
","
","
","""event"",""trial"",""time""
""fullscreenenter"",""0"",""3151""
","
",null,<p></p>,null,,,,,,,,,,,,,,,,,,,,,,,
,do_trial,114,509496,0.0-67.0-0.0,"""event"",""trial"",""time""
""fullscreenenter"",""0"",""3151""
","
","
","""event"",""trial"",""time""
""fullscreenenter"",""0"",""3151""
","
",375.4,,,,,,,,49,"1,1,0",0,city,13,probe-171,0.468000678,0.496766826,0.238149352,1,,,,,,,,
,html-keyboard-response,115,510504,0.0-67.0-1.0,"""event"",""trial"",""time""
""fullscreenenter"",""0"",""3151""
","
","
","""event"",""trial"",""time""
""fullscreenenter"",""0"",""3151""
","
",null,<p></p>,null,,,,,,,,,,,,,,,,,,,,,,,
,do_trial,116,515325,0.0-68.0-0.0,"""event"",""trial"",""time""
""fullscreenenter"",""0"",""3151""
","
","
","""event"",""trial"",""time""
""fullscreenenter"",""0"",""3151""
","
",268.3,,,,,,,,49,"0,0,0",0,city,14,probe-28,0.362889918,0.422342254,0.19728044,0,,,,,,,,
,html-keyboard-response,117,516333,0.0-68.0-1.0,"""event"",""trial"",""time""
""fullscreenenter"",""0"",""3151""
","
","
","""event"",""trial"",""time""
""fullscreenenter"",""0"",""3151""
","
",null,<p></p>,null,,,,,,,,,,,,,,,,,,,,,,,
,do_trial,118,521168,0.0-69.0-0.0,"""event"",""trial"",""time""
""fullscreenenter"",""0"",""3151""
","
","
","""event"",""trial"",""time""
""fullscreenenter"",""0"",""3151""
","
",277.4,,,,,,,,49,"1,1,0",0,city,15,probe-23,0.510509167,0.529697994,0.116637088,1,,,,,,,,
,html-keyboard-response,119,522175,0.0-69.0-1.0,"""event"",""trial"",""time""
""fullscreenenter"",""0"",""3151""
","
","
","""event"",""trial"",""time""
""fullscreenenter"",""0"",""3151""
","
",null,<p></p>,null,,,,,,,,,,,,,,,,,,,,,,,
,do_trial,120,527410,0.0-70.0-0.0,"""event"",""trial"",""time""
""fullscreenenter"",""0"",""3151""
","
","
","""event"",""trial"",""time""
""fullscreenenter"",""0"",""3151""
","
",691.3,,,,,,,,50,"1,1,0",0,city,16,probe-87,0.593404011,0.396308531,0.058947766,1,,,,,,,,
,html-keyboard-response,121,528418,0.0-70.0-1.0,"""event"",""trial"",""time""
""fullscreenenter"",""0"",""3151""
","
","
","""event"",""trial"",""time""
""fullscreenenter"",""0"",""3151""
","
",null,<p></p>,null,,,,,,,,,,,,,,,,,,,,,,,
,do_trial,122,533239,0.0-71.0-0.0,"""event"",""trial"",""time""
""fullscreenenter"",""0"",""3151""
","
","
","""event"",""trial"",""time""
""fullscreenenter"",""0"",""3151""
","
",264.6,,,,,,,,49,"1,0,0",0,city,17,probe-208,0.633248695,0.249664853,0.105988356,1,,,,,,,,
,html-keyboard-response,123,534247,0.0-71.0-1.0,"""event"",""trial"",""time""
""fullscreenenter"",""0"",""3151""
","
","
","""event"",""trial"",""time""
""fullscreenenter"",""0"",""3151""
","
",null,<p></p>,null,,,,,,,,,,,,,,,,,,,,,,,
,do_trial,124,539080,0.0-72.0-0.0,"""event"",""trial"",""time""
""fullscreenenter"",""0"",""3151""
","
","
","""event"",""trial"",""time""
""fullscreenenter"",""0"",""3151""
","
",281.3,,,,,,,,49,"0,0,0",0,city,18,probe-210,0.650610924,0.291045842,0.140014898,0,,,,,,,,
,html-keyboard-response,125,540085,0.0-72.0-1.0,"""event"",""trial"",""time""
""fullscreenenter"",""0"",""3151""
","
","
","""event"",""trial"",""time""
""fullscreenenter"",""0"",""3151""
","
",null,<p></p>,null,,,,,,,,,,,,,,,,,,,,,,,
,do_trial,126,544757,0.0-73.0-0.0,"""event"",""trial"",""time""
""fullscreenenter"",""0"",""3151""
","
","
","""event"",""trial"",""time""
""fullscreenenter"",""0"",""3151""
","
",115.2,,,,,,,,50,"1,0,1",0,city,19,probe-192,0.629990213,0.181166186,0.148827064,0,,,,,,,,
,html-keyboard-response,127,545759,0.0-73.0-1.0,"""event"",""trial"",""time""
""fullscreenenter"",""0"",""3151""
","
","
","""event"",""trial"",""time""
""fullscreenenter"",""0"",""3151""
","
",null,<p></p>,null,,,,,,,,,,,,,,,,,,,,,,,
,do_trial,128,550405,0.0-74.0-0.0,"""event"",""trial"",""time""
""fullscreenenter"",""0"",""3151""
","
","
","""event"",""trial"",""time""
""fullscreenenter"",""0"",""3151""
","
",82.2,,,,,,,,49,"1,1,0",0,city,20,probe-26,0.655625809,0.291652733,0.261416528,1,,,,,,,,
,html-keyboard-response,129,551412,0.0-74.0-1.0,"""event"",""trial"",""time""
""fullscreenenter"",""0"",""3151""
","
","
","""event"",""trial"",""time""
""fullscreenenter"",""0"",""3151""
","
",null,<p></p>,null,,,,,,,,,,,,,,,,,,,,,,,
,do_trial,130,556094,0.0-75.0-0.0,"""event"",""trial"",""time""
""fullscreenenter"",""0"",""3151""
","
","
","""event"",""trial"",""time""
""fullscreenenter"",""0"",""3151""
","
",120.8,,,,,,,,50,"1,0,0",0,city,21,probe-109,0.617219958,0.261563071,0.065482338,0,,,,,,,,
,html-keyboard-response,131,557096,0.0-75.0-1.0,"""event"",""trial"",""time""
""fullscreenenter"",""0"",""3151""
","
","
","""event"",""trial"",""time""
""fullscreenenter"",""0"",""3151""
","
",null,<p></p>,null,,,,,,,,,,,,,,,,,,,,,,,
,do_trial,132,561813,0.0-76.0-0.0,"""event"",""trial"",""time""
""fullscreenenter"",""0"",""3151""
","
","
","""event"",""trial"",""time""
""fullscreenenter"",""0"",""3151""
","
",155.2,,,,,,,,49,"0,0,0",0,city,22,probe-18,0.540535248,0.178244776,0.063133078,0,,,,,,,,
,html-keyboard-response,133,562820,0.0-76.0-1.0,"""event"",""trial"",""time""
""fullscreenenter"",""0"",""3151""
","
","
","""event"",""trial"",""time""
""fullscreenenter"",""0"",""3151""
","
",null,<p></p>,null,,,,,,,,,,,,,,,,,,,,,,,
,do_trial,134,567729,0.0-77.0-0.0,"""event"",""trial"",""time""
""fullscreenenter"",""0"",""3151""
","
","
","""event"",""trial"",""time""
""fullscreenenter"",""0"",""3151""
","
",361.7,,,,,,,,49,"0,1,0",0,city,23,probe-195,0.56676902,0.286459631,0.167620241,0,,,,,,,,
,html-keyboard-response,135,568737,0.0-77.0-1.0,"""event"",""trial"",""time""
""fullscreenenter"",""0"",""3151""
","
","
","""event"",""trial"",""time""
""fullscreenenter"",""0"",""3151""
","
",null,<p></p>,null,,,,,,,,,,,,,,,,,,,,,,,
,do_trial,136,573367,0.0-78.0-0.0,"""event"",""trial"",""time""
""fullscreenenter"",""0"",""3151""
","
","
","""event"",""trial"",""time""
""fullscreenenter"",""0"",""3151""
","
",75.8,,,,,,,,50,"1,1,0",0,city,24,probe-77,0.642194244,0.247191839,0.318723002,1,,,,,,,,
,html-keyboard-response,137,574374,0.0-78.0-1.0,"""event"",""trial"",""time""
""fullscreenenter"",""0"",""3151""
","
","
","""event"",""trial"",""time""
""fullscreenenter"",""0"",""3151""
","
",null,<p></p>,null,,,,,,,,,,,,,,,,,,,,,,,
,do_trial,138,579375,0.0-79.0-0.0,"""event"",""trial"",""time""
""fullscreenenter"",""0"",""3151""
","
","
","""event"",""trial"",""time""
""fullscreenenter"",""0"",""3151""
","
",444.9,,,,,,,,50,"1,1,0",0,city,25,probe-173,0.687231019,0.324295315,0.314185563,1,,,,,,,,
,html-keyboard-response,139,580380,0.0-79.0-1.0,"""event"",""trial"",""time""
""fullscreenenter"",""0"",""3151""
","
","
","""event"",""trial"",""time""
""fullscreenenter"",""0"",""3151""
","
",null,<p></p>,null,,,,,,,,,,,,,,,,,,,,,,,
,do_trial,140,585323,0.0-80.0-0.0,"""event"",""trial"",""time""
""fullscreenenter"",""0"",""3151""
","
","
","""event"",""trial"",""time""
""fullscreenenter"",""0"",""3151""
","
",391.9,,,,,,,,49,"0,1,0",0,city,26,probe-162,0.55830973,0.354295457,0.172046378,0,,,,,,,,
,html-keyboard-response,141,586330,0.0-80.0-1.0,"""event"",""trial"",""time""
""fullscreenenter"",""0"",""3151""
","
","
","""event"",""trial"",""time""
""fullscreenenter"",""0"",""3151""
","
",null,<p></p>,null,,,,,,,,,,,,,,,,,,,,,,,
,do_trial,142,591039,0.0-81.0-0.0,"""event"",""trial"",""time""
""fullscreenenter"",""0"",""3151""
","
","
","""event"",""trial"",""time""
""fullscreenenter"",""0"",""3151""
","
",158.8,,,,,,,,51,"1,0,1",0,city,27,probe-67,0.504609948,0.240940277,0.191138367,1,,,,,,,,
,html-keyboard-response,143,592046,0.0-81.0-1.0,"""event"",""trial"",""time""
""fullscreenenter"",""0"",""3151""
","
","
","""event"",""trial"",""time""
""fullscreenenter"",""0"",""3151""
","
",null,<p></p>,null,,,,,,,,,,,,,,,,,,,,,,,
,do_trial,144,597028,0.0-82.0-0.0,"""event"",""trial"",""time""
""fullscreenenter"",""0"",""3151""
","
","
","""event"",""trial"",""time""
""fullscreenenter"",""0"",""3151""
","
",430.9,,,,,,,,50,"1,0,0",0,city,28,probe-57,0.690540211,0.414020236,0.185533486,0,,,,,,,,
,html-keyboard-response,145,598035,0.0-82.0-1.0,"""event"",""trial"",""time""
""fullscreenenter"",""0"",""3151""
","
","
","""event"",""trial"",""time""
""fullscreenenter"",""0"",""3151""
","
",null,<p></p>,null,,,,,,,,,,,,,,,,,,,,,,,
,do_trial,146,602894,0.0-83.0-0.0,"""event"",""trial"",""time""
""fullscreenenter"",""0"",""3151""
","
","
","""event"",""trial"",""time""
""fullscreenenter"",""0"",""3151""
","
",312.6,,,,,,,,51,"0,1,0",0,city,29,probe-172,0.727270647,0.381014671,0.106198183,0,,,,,,,,
,html-keyboard-response,147,603901,0.0-83.0-1.0,"""event"",""trial"",""time""
""fullscreenenter"",""0"",""3151""
","
","
","""event"",""trial"",""time""
""fullscreenenter"",""0"",""3151""
","
",null,<p></p>,null,,,,,,,,,,,,,,,,,,,,,,,
,do_bye,148,605413,0.0-84.0-0.0,"""event"",""trial"",""time""
""fullscreenenter"",""0"",""3151""
","
","
","""event"",""trial"",""time""
""fullscreenenter"",""0"",""3151""
","
",null,,,,,,,,null,,,,,,,,,,,,,,,,,
,break,149,608055,0.0-84.0-1.0,"""event"",""trial"",""time""
""fullscreenenter"",""0"",""3151""
","
","
","""event"",""trial"",""time""
""fullscreenenter"",""0"",""3151""
","
",2639.9,"<div class='center'><p>Time to take a quick break! You have 2 minutes to rest, but you can move on sooner if you'd like.</p><p> Press the <b>space bar</b> to continue.</p></div>",32,,,,,,,,,,,,,,,,,,,,,,,
,do_travel,150,617064,0.0-85.0-0.0,"""event"",""trial"",""time""
""fullscreenenter"",""0"",""3151""
","
","
","""event"",""trial"",""time""
""fullscreenenter"",""0"",""3151""
","
",null,,,,,,,,null,,,,,,,,,,,,,,,,,
,do_welcome,151,621077,0.0-85.0-1.0,"""event"",""trial"",""time""
""fullscreenenter"",""0"",""3151""
","
","
","""event"",""trial"",""time""
""fullscreenenter"",""0"",""3151""
","
",null,,,,,,,,null,,,,,,,,,,,,,,,,,
,do_trial,152,628563,0.0-86.0-0.0,"""event"",""trial"",""time""
""fullscreenenter"",""0"",""3151""
","
","
","""event"",""trial"",""time""
""fullscreenenter"",""0"",""3151""
","
",2927.9,,,,,,,,49,"1,0,1",1,forest,30,probe-211,1,0.480690754,0.191219093,1,,,,,,,,
,html-keyboard-response,153,629570,0.0-86.0-1.0,"""event"",""trial"",""time""
""fullscreenenter"",""0"",""3151""
","
","
","""event"",""trial"",""time""
""fullscreenenter"",""0"",""3151""
","
",null,<p></p>,null,,,,,,,,,,,,,,,,,,,,,,,
,do_trial,154,637048,0.0-87.0-0.0,"""event"",""trial"",""time""
""fullscreenenter"",""0"",""3151""
","
","
","""event"",""trial"",""time""
""fullscreenenter"",""0"",""3151""
","
",2928.5,,,,,,,,49,"1,0,0",1,forest,31,probe-167,1,0.345202768,0.246847944,1,,,,,,,,
,html-keyboard-response,155,638055,0.0-87.0-1.0,"""event"",""trial"",""time""
""fullscreenenter"",""0"",""3151""
","
","
","""event"",""trial"",""time""
""fullscreenenter"",""0"",""3151""
","
",null,<p></p>,null,,,,,,,,,,,,,,,,,,,,,,,
,do_trial,156,642645,0.0-88.0-0.0,"""event"",""trial"",""time""
""fullscreenenter"",""0"",""3151""
","
","
","""event"",""trial"",""time""
""fullscreenenter"",""0"",""3151""
","
",33.3,,,,,,,,50,"1,0,0",1,forest,32,probe-227,1,0.327254547,0.079093005,0,,,,,,,,
,html-keyboard-response,157,643650,0.0-88.0-1.0,"""event"",""trial"",""time""
""fullscreenenter"",""0"",""3151""
","
","
","""event"",""trial"",""time""
""fullscreenenter"",""0"",""3151""
","
",null,<p></p>,null,,,,,,,,,,,,,,,,,,,,,,,
,do_trial,158,648445,0.0-89.0-0.0,"""event"",""trial"",""time""
""fullscreenenter"",""0"",""3151""
","
","
","""event"",""trial"",""time""
""fullscreenenter"",""0"",""3151""
","
",236.2,,,,,,,,49,"1,0,0",1,forest,33,probe-33,0.874731777,0.160915874,0.25283864,1,,,,,,,,
,html-keyboard-response,159,649452,0.0-89.0-1.0,"""event"",""trial"",""time""
""fullscreenenter"",""0"",""3151""
","
","
","""event"",""trial"",""time""
""fullscreenenter"",""0"",""3151""
","
",null,<p></p>,null,,,,,,,,,,,,,,,,,,,,,,,
,do_trial,160,654343,0.0-90.0-0.0,"""event"",""trial"",""time""
""fullscreenenter"",""0"",""3151""
","
","
","""event"",""trial"",""time""
""fullscreenenter"",""0"",""3151""
","
",338.1,,,,,,,,49,"1,0,1",1,forest,34,probe-17,0.776723281,0.17873069,0.343717762,1,,,,,,,,
,html-keyboard-response,161,655351,0.0-90.0-1.0,"""event"",""trial"",""time""
""fullscreenenter"",""0"",""3151""
","
","
","""event"",""trial"",""time""
""fullscreenenter"",""0"",""3151""
","
",null,<p></p>,null,,,,,,,,,,,,,,,,,,,,,,,
,do_trial,162,660280,0.0-91.0-0.0,"""event"",""trial"",""time""
""fullscreenenter"",""0"",""3151""
","
","
","""event"",""trial"",""time""
""fullscreenenter"",""0"",""3151""
","
",375.5,,,,,,,,49,"1,0,0",1,forest,35,probe-97,0.795746749,0.218099626,0.162189894,1,,,,,,,,
,html-keyboard-response,163,661287,0.0-91.0-1.0,"""event"",""trial"",""time""
""fullscreenenter"",""0"",""3151""
","
","
","""event"",""trial"",""time""
""fullscreenenter"",""0"",""3151""
","
",null,<p></p>,null,,,,,,,,,,,,,,,,,,,,,,,
,do_trial,164,666016,0.0-92.0-0.0,"""event"",""trial"",""time""
""fullscreenenter"",""0"",""3151""
","
","
","""event"",""trial"",""time""
""fullscreenenter"",""0"",""3151""
","
",184,,,,,,,,49,"1,0,0",1,forest,36,probe-146,0.819265059,0.152452684,0.072492427,1,,,,,,,,
,html-keyboard-response,165,667024,0.0-92.0-1.0,"""event"",""trial"",""time""
""fullscreenenter"",""0"",""3151""
","
","
","""event"",""trial"",""time""
""fullscreenenter"",""0"",""3151""
","
",null,<p></p>,null,,,,,,,,,,,,,,,,,,,,,,,
,do_trial,166,672281,0.0-93.0-0.0,"""event"",""trial"",""time""
""fullscreenenter"",""0"",""3151""
","
","
","""event"",""trial"",""time""
""fullscreenenter"",""0"",""3151""
","
",701.1,,,,,,,,49,"1,1,0",1,forest,37,probe-159,0.729689208,0.32991509,0.065511699,1,,,,,,,,
,html-keyboard-response,167,673288,0.0-93.0-1.0,"""event"",""trial"",""time""
""fullscreenenter"",""0"",""3151""
","
","
","""event"",""trial"",""time""
""fullscreenenter"",""0"",""3151""
","
",null,<p></p>,null,,,,,,,,,,,,,,,,,,,,,,,
,do_trial,168,677892,0.0-94.0-0.0,"""event"",""trial"",""time""
""fullscreenenter"",""0"",""3151""
","
","
","""event"",""trial"",""time""
""fullscreenenter"",""0"",""3151""
","
",54.7,,,,,,,,49,"1,0,1",1,forest,38,probe-30,0.744928995,0.266581939,0.125036263,1,,,,,,,,
,html-keyboard-response,169,678896,0.0-94.0-1.0,"""event"",""trial"",""time""
""fullscreenenter"",""0"",""3151""
","
","
","""event"",""trial"",""time""
""fullscreenenter"",""0"",""3151""
","
",null,<p></p>,null,,,,,,,,,,,,,,,,,,,,,,,
,do_trial,170,684635,0.0-95.0-0.0,"""event"",""trial"",""time""
""fullscreenenter"",""0"",""3151""
","
","
","""event"",""trial"",""time""
""fullscreenenter"",""0"",""3151""
","
",1187.6,,,,,,,,49,"1,0,0",1,forest,39,probe-117,0.547529303,0.310205988,0.089649824,1,,,,,,,,
,html-keyboard-response,171,685643,0.0-95.0-1.0,"""event"",""trial"",""time""
""fullscreenenter"",""0"",""3151""
","
","
","""event"",""trial"",""time""
""fullscreenenter"",""0"",""3151""
","
",null,<p></p>,null,,,,,,,,,,,,,,,,,,,,,,,
,do_trial,172,690714,0.0-96.0-0.0,"""event"",""trial"",""time""
""fullscreenenter"",""0"",""3151""
","
","
","""event"",""trial"",""time""
""fullscreenenter"",""0"",""3151""
","
",520.8,,,,,,,,49,"0,1,0",1,forest,40,probe-220,0.631758108,0.318152167,0.225024163,0,,,,,,,,
,html-keyboard-response,173,691719,0.0-96.0-1.0,"""event"",""trial"",""time""
""fullscreenenter"",""0"",""3151""
","
","
","""event"",""trial"",""time""
""fullscreenenter"",""0"",""3151""
","
",null,<p></p>,null,,,,,,,,,,,,,,,,,,,,,,,
,do_trial,174,696511,0.0-97.0-0.0,"""event"",""trial"",""time""
""fullscreenenter"",""0"",""3151""
","
","
","""event"",""trial"",""time""
""fullscreenenter"",""0"",""3151""
","
",236.2,,,,,,,,51,"1,1,0",1,forest,41,probe-39,0.597300525,0.222483379,0.19427702,0,,,,,,,,
,html-keyboard-response,175,697515,0.0-97.0-1.0,"""event"",""trial"",""time""
""fullscreenenter"",""0"",""3151""
","
","
","""event"",""trial"",""time""
""fullscreenenter"",""0"",""3151""
","
",null,<p></p>,null,,,,,,,,,,,,,,,,,,,,,,,
,do_trial,176,702464,0.0-98.0-0.0,"""event"",""trial"",""time""
""fullscreenenter"",""0"",""3151""
","
","
","""event"",""trial"",""time""
""fullscreenenter"",""0"",""3151""
","
",391.7,,,,,,,,51,"0,0,0",1,forest,42,probe-129,0.548221932,0.05729573,0.309713841,0,,,,,,,,
,html-keyboard-response,177,703468,0.0-98.0-1.0,"""event"",""trial"",""time""
""fullscreenenter"",""0"",""3151""
","
","
","""event"",""trial"",""time""
""fullscreenenter"",""0"",""3151""
","
",null,<p></p>,null,,,,,,,,,,,,,,,,,,,,,,,
,do_trial,178,708158,0.0-99.0-0.0,"""event"",""trial"",""time""
""fullscreenenter"",""0"",""3151""
","
","
","""event"",""trial"",""time""
""fullscreenenter"",""0"",""3151""
","
",143.6,,,,,,,,50,"0,0,1",1,forest,43,probe-139,0.428935622,0.05207048,0.282572811,0,,,,,,,,
,html-keyboard-response,179,709165,0.0-99.0-1.0,"""event"",""trial"",""time""
""fullscreenenter"",""0"",""3151""
","
","
","""event"",""trial"",""time""
""fullscreenenter"",""0"",""3151""
","
",null,<p></p>,null,,,,,,,,,,,,,,,,,,,,,,,
,do_trial,180,713866,0.0-100.0-0.0,"""event"",""trial"",""time""
""fullscreenenter"",""0"",""3151""
","
","
","""event"",""trial"",""time""
""fullscreenenter"",""0"",""3151""
","
",143.3,,,,,,,,49,"0,0,1",1,forest,44,probe-110,0.341126223,0.057431798,0.408627226,0,,,,,,,,
,html-keyboard-response,181,714873,0.0-100.0-1.0,"""event"",""trial"",""time""
""fullscreenenter"",""0"",""3151""
","
","
","""event"",""trial"",""time""
""fullscreenenter"",""0"",""3151""
","
",null,<p></p>,null,,,,,,,,,,,,,,,,,,,,,,,
,do_trial,182,719454,0.0-101.0-0.0,"""event"",""trial"",""time""
""fullscreenenter"",""0"",""3151""
","
","
","""event"",""trial"",""time""
""fullscreenenter"",""0"",""3151""
","
",34.8,,,,,,,,49,"0,0,1",1,forest,45,probe-189,0.31287374,0.058462486,0.589726107,0,,,,,,,,
,html-keyboard-response,183,720462,0.0-101.0-1.0,"""event"",""trial"",""time""
""fullscreenenter"",""0"",""3151""
","
","
","""event"",""trial"",""time""
""fullscreenenter"",""0"",""3151""
","
",null,<p></p>,null,,,,,,,,,,,,,,,,,,,,,,,
,do_trial,184,725197,0.0-102.0-0.0,"""event"",""trial"",""time""
""fullscreenenter"",""0"",""3151""
","
","
","""event"",""trial"",""time""
""fullscreenenter"",""0"",""3151""
","
",178.5,,,,,,,,49,"1,0,0",1,forest,46,probe-35,0.197356662,0.070446251,0.768770728,1,,,,,,,,
,html-keyboard-response,185,726205,0.0-102.0-1.0,"""event"",""trial"",""time""
""fullscreenenter"",""0"",""3151""
","
","
","""event"",""trial"",""time""
""fullscreenenter"",""0"",""3151""
","
",null,<p></p>,null,,,,,,,,,,,,,,,,,,,,,,,
,do_trial,186,731040,0.0-103.0-0.0,"""event"",""trial"",""time""
""fullscreenenter"",""0"",""3151""
","
","
","""event"",""trial"",""time""
""fullscreenenter"",""0"",""3151""
","
",276.2,,,,,,,,49,"0,0,0",1,forest,47,probe-42,0.276773148,0.112835579,0.658780658,0,,,,,,,,
,html-keyboard-response,187,732046,0.0-103.0-1.0,"""event"",""trial"",""time""
""fullscreenenter"",""0"",""3151""
","
","
","""event"",""trial"",""time""
""fullscreenenter"",""0"",""3151""
","
",null,<p></p>,null,,,,,,,,,,,,,,,,,,,,,,,
,do_trial,188,736769,0.0-104.0-0.0,"""event"",""trial"",""time""
""fullscreenenter"",""0"",""3151""
","
","
","""event"",""trial"",""time""
""fullscreenenter"",""0"",""3151""
","
",167.9,,,,,,,,49,"0,1,0",1,forest,48,probe-49,0.246443768,0.065584997,0.621656953,0,,,,,,,,
,html-keyboard-response,189,737777,0.0-104.0-1.0,"""event"",""trial"",""time""
""fullscreenenter"",""0"",""3151""
","
","
","""event"",""trial"",""time""
""fullscreenenter"",""0"",""3151""
","
",null,<p></p>,null,,,,,,,,,,,,,,,,,,,,,,,
,do_trial,190,742454,0.0-105.0-0.0,"""event"",""trial"",""time""
""fullscreenenter"",""0"",""3151""
","
","
","""event"",""trial"",""time""
""fullscreenenter"",""0"",""3151""
","
",125.3,,,,,,,,50,"1,0,0",1,forest,49,probe-137,0.290072218,0.104615159,0.56486573,0,,,,,,,,
,html-keyboard-response,191,743461,0.0-105.0-1.0,"""event"",""trial"",""time""
""fullscreenenter"",""0"",""3151""
","
","
","""event"",""trial"",""time""
""fullscreenenter"",""0"",""3151""
","
",null,<p></p>,null,,,,,,,,,,,,,,,,,,,,,,,
,do_trial,192,748014,0.0-106.0-0.0,"""event"",""trial"",""time""
""fullscreenenter"",""0"",""3151""
","
","
","""event"",""trial"",""time""
""fullscreenenter"",""0"",""3151""
","
",0.300000001,,,,,,,,50,"1,0,1",1,forest,50,probe-218,0.368159284,0.118514685,0.632249721,0,,,,,,,,
,html-keyboard-response,193,749021,0.0-106.0-1.0,"""event"",""trial"",""time""
""fullscreenenter"",""0"",""3151""
","
","
","""event"",""trial"",""time""
""fullscreenenter"",""0"",""3151""
","
",null,<p></p>,null,,,,,,,,,,,,,,,,,,,,,,,
,do_trial,194,753582,0.0-107.0-0.0,"""event"",""trial"",""time""
""fullscreenenter"",""0"",""3151""
","
","
","""event"",""trial"",""time""
""fullscreenenter"",""0"",""3151""
","
",15.5,,,,,,,,51,"0,0,1",1,forest,51,probe-01,0.321649927,0.113864806,0.579351516,1,,,,,,,,
,html-keyboard-response,195,754585,0.0-107.0-1.0,"""event"",""trial"",""time""
""fullscreenenter"",""0"",""3151""
","
","
","""event"",""trial"",""time""
""fullscreenenter"",""0"",""3151""
","
",null,<p></p>,null,,,,,,,,,,,,,,,,,,,,,,,
,do_trial,196,759628,0.0-108.0-0.0,"""event"",""trial"",""time""
""fullscreenenter"",""0"",""3151""
","
","
","""event"",""trial"",""time""
""fullscreenenter"",""0"",""3151""
","
",487.3,,,,,,,,51,"0,0,1",1,forest,52,probe-144,0.298021612,0.065040241,0.576366629,1,,,,,,,,
,html-keyboard-response,197,760632,0.0-108.0-1.0,"""event"",""trial"",""time""
""fullscreenenter"",""0"",""3151""
","
","
","""event"",""trial"",""time""
""fullscreenenter"",""0"",""3151""
","
",null,<p></p>,null,,,,,,,,,,,,,,,,,,,,,,,
,do_trial,198,765329,0.0-109.0-0.0,"""event"",""trial"",""time""
""fullscreenenter"",""0"",""3151""
","
","
","""event"",""trial"",""time""
""fullscreenenter"",""0"",""3151""
","
",142,,,,,,,,51,"1,0,1",1,forest,53,probe-142,0.370171039,0.081896135,0.537020047,1,,,,,,,,
,html-keyboard-response,199,766333,0.0-109.0-1.0,"""event"",""trial"",""time""
""fullscreenenter"",""0"",""3151""
","
","
","""event"",""trial"",""time""
""fullscreenenter"",""0"",""3151""
","
",null,<p></p>,null,,,,,,,,,,,,,,,,,,,,,,,
,do_trial,200,771175,0.0-110.0-0.0,"""event"",""trial"",""time""
""fullscreenenter"",""0"",""3151""
","
","
","""event"",""trial"",""time""
""fullscreenenter"",""0"",""3151""
","
",286.4,,,,,,,,51,"1,1,0",1,forest,54,probe-45,0.367637318,0.241049122,0.592026557,0,,,,,,,,
,html-keyboard-response,201,772182,0.0-110.0-1.0,"""event"",""trial"",""time""
""fullscreenenter"",""0"",""3151""
","
","
","""event"",""trial"",""time""
""fullscreenenter"",""0"",""3151""
","
",null,<p></p>,null,,,,,,,,,,,,,,,,,,,,,,,
,do_trial,202,777079,0.0-111.0-0.0,"""event"",""trial"",""time""
""fullscreenenter"",""0"",""3151""
","
","
","""event"",""trial"",""time""
""fullscreenenter"",""0"",""3151""
","
",346.2,,,,,,,,49,"1,0,0",1,forest,55,probe-122,0.391882156,0.177894399,0.563447762,1,,,,,,,,
,html-keyboard-response,203,778086,0.0-111.0-1.0,"""event"",""trial"",""time""
""fullscreenenter"",""0"",""3151""
","
","
","""event"",""trial"",""time""
""fullscreenenter"",""0"",""3151""
","
",null,<p></p>,null,,,,,,,,,,,,,,,,,,,,,,,
,do_trial,204,782926,0.0-112.0-0.0,"""event"",""trial"",""time""
""fullscreenenter"",""0"",""3151""
","
","
","""event"",""trial"",""time""
""fullscreenenter"",""0"",""3151""
","
",277,,,,,,,,49,"0,0,1",1,forest,56,probe-180,0.331100981,0.108843414,0.627198549,0,,,,,,,,
,html-keyboard-response,205,783933,0.0-112.0-1.0,"""event"",""trial"",""time""
""fullscreenenter"",""0"",""3151""
","
","
","""event"",""trial"",""time""
""fullscreenenter"",""0"",""3151""
","
",null,<p></p>,null,,,,,,,,,,,,,,,,,,,,,,,
,do_trial,206,788793,0.0-113.0-0.0,"""event"",""trial"",""time""
""fullscreenenter"",""0"",""3151""
","
","
","""event"",""trial"",""time""
""fullscreenenter"",""0"",""3151""
","
",303.5,,,,,,,,50,"1,0,0",1,forest,57,probe-215,0.317998459,0.160836429,0.639176191,0,,,,,,,,
,html-keyboard-response,207,789798,0.0-113.0-1.0,"""event"",""trial"",""time""
""fullscreenenter"",""0"",""3151""
","
","
","""event"",""trial"",""time""
""fullscreenenter"",""0"",""3151""
","
",null,<p></p>,null,,,,,,,,,,,,,,,,,,,,,,,
,do_trial,208,794666,0.0-114.0-0.0,"""event"",""trial"",""time""
""fullscreenenter"",""0"",""3151""
","
","
","""event"",""trial"",""time""
""fullscreenenter"",""0"",""3151""
","
",310.1,,,,,,,,51,"0,0,1",1,forest,58,probe-178,0.330862567,0.151595883,0.598066429,1,,,,,,,,
,html-keyboard-response,209,795671,0.0-114.0-1.0,"""event"",""trial"",""time""
""fullscreenenter"",""0"",""3151""
","
","
","""event"",""trial"",""time""
""fullscreenenter"",""0"",""3151""
","
",null,<p></p>,null,,,,,,,,,,,,,,,,,,,,,,,
,do_trial,210,800367,0.0-115.0-0.0,"""event"",""trial"",""time""
""fullscreenenter"",""0"",""3151""
","
","
","""event"",""trial"",""time""
""fullscreenenter"",""0"",""3151""
","
",151.6,,,,,,,,51,"0,0,1",1,forest,59,probe-13,0.354437819,0.219530891,0.546557497,1,,,,,,,,
,html-keyboard-response,211,801374,0.0-115.0-1.0,"""event"",""trial"",""time""
""fullscreenenter"",""0"",""3151""
","
","
","""event"",""trial"",""time""
""fullscreenenter"",""0"",""3151""
","
",null,<p></p>,null,,,,,,,,,,,,,,,,,,,,,,,
,do_trial,212,806509,0.0-116.0-0.0,"""event"",""trial"",""time""
""fullscreenenter"",""0"",""3151""
","
","
","""event"",""trial"",""time""
""fullscreenenter"",""0"",""3151""
","
",591,,,,,,,,51,"0,0,1",1,forest,60,probe-186,0.336814288,0.226304246,0.699565336,1,,,,,,,,
,html-keyboard-response,213,807513,0.0-116.0-1.0,"""event"",""trial"",""time""
""fullscreenenter"",""0"",""3151""
","
","
","""event"",""trial"",""time""
""fullscreenenter"",""0"",""3151""
","
",null,<p></p>,null,,,,,,,,,,,,,,,,,,,,,,,
,do_trial,214,812603,0.0-117.0-0.0,"""event"",""trial"",""time""
""fullscreenenter"",""0"",""3151""
","
","
","""event"",""trial"",""time""
""fullscreenenter"",""0"",""3151""
","
",535.5,,,,,,,,51,"0,0,1",1,forest,61,probe-222,0.18311196,0.081280516,0.605045851,1,,,,,,,,
,html-keyboard-response,215,813610,0.0-117.0-1.0,"""event"",""trial"",""time""
""fullscreenenter"",""0"",""3151""
","
","
","""event"",""trial"",""time""
""fullscreenenter"",""0"",""3151""
","
",null,<p></p>,null,,,,,,,,,,,,,,,,,,,,,,,
,do_trial,216,818730,0.0-118.0-0.0,"""event"",""trial"",""time""
""fullscreenenter"",""0"",""3151""
","
","
","""event"",""trial"",""time""
""fullscreenenter"",""0"",""3151""
","
",567.3,,,,,,,,51,"1,0,1",1,forest,62,probe-161,0.258361382,0.071361079,0.586200415,1,,,,,,,,
,html-keyboard-response,217,819737,0.0-118.0-1.0,"""event"",""trial"",""time""
""fullscreenenter"",""0"",""3151""
","
","
","""event"",""trial"",""time""
""fullscreenenter"",""0"",""3151""
","
",null,<p></p>,null,,,,,,,,,,,,,,,,,,,,,,,
,do_trial,218,824656,0.0-119.0-0.0,"""event"",""trial"",""time""
""fullscreenenter"",""0"",""3151""
","
","
","""event"",""trial"",""time""
""fullscreenenter"",""0"",""3151""
","
",371.1,,,,,,,,51,"1,0,0",1,forest,63,probe-148,0.182274759,0.119872228,0.474080397,0,,,,,,,,
,html-keyboard-response,219,825663,0.0-119.0-1.0,"""event"",""trial"",""time""
""fullscreenenter"",""0"",""3151""
","
","
","""event"",""trial"",""time""
""fullscreenenter"",""0"",""3151""
","
",null,<p></p>,null,,,,,,,,,,,,,,,,,,,,,,,
,do_trial,220,831120,0.0-120.0-0.0,"""event"",""trial"",""time""
""fullscreenenter"",""0"",""3151""
","
","
","""event"",""trial"",""time""
""fullscreenenter"",""0"",""3151""
","
",908.3,,,,,,,,51,"0,0,1",1,forest,64,probe-166,0.33033674,0.073224622,0.36798793,1,,,,,,,,
,html-keyboard-response,221,832124,0.0-120.0-1.0,"""event"",""trial"",""time""
""fullscreenenter"",""0"",""3151""
","
","
","""event"",""trial"",""time""
""fullscreenenter"",""0"",""3151""
","
",null,<p></p>,null,,,,,,,,,,,,,,,,,,,,,,,
,do_trial,222,836982,0.0-121.0-0.0,"""event"",""trial"",""time""
""fullscreenenter"",""0"",""3151""
","
","
","""event"",""trial"",""time""
""fullscreenenter"",""0"",""3151""
","
",311.7,,,,,,,,51,"0,0,1",1,forest,65,probe-108,0.299673641,0.157464977,0.460291899,1,,,,,,,,
,html-keyboard-response,223,837987,0.0-121.0-1.0,"""event"",""trial"",""time""
""fullscreenenter"",""0"",""3151""
","
","
","""event"",""trial"",""time""
""fullscreenenter"",""0"",""3151""
","
",null,<p></p>,null,,,,,,,,,,,,,,,,,,,,,,,
,do_trial,224,842570,0.0-122.0-0.0,"""event"",""trial"",""time""
""fullscreenenter"",""0"",""3151""
","
","
","""event"",""trial"",""time""
""fullscreenenter"",""0"",""3151""
","
",26.3,,,,,,,,51,"1,0,1",1,forest,66,probe-107,0.391191761,0.189350028,0.41891245,1,,,,,,,,
,html-keyboard-response,225,843578,0.0-122.0-1.0,"""event"",""trial"",""time""
""fullscreenenter"",""0"",""3151""
","
","
","""event"",""trial"",""time""
""fullscreenenter"",""0"",""3151""
","
",null,<p></p>,null,,,,,,,,,,,,,,,,,,,,,,,
,do_trial,226,848402,0.0-123.0-0.0,"""event"",""trial"",""time""
""fullscreenenter"",""0"",""3151""
","
","
","""event"",""trial"",""time""
""fullscreenenter"",""0"",""3151""
","
",274.5,,,,,,,,51,"1,0,0",1,forest,67,probe-82,0.295374589,0.053131793,0.498369971,0,,,,,,,,
,html-keyboard-response,227,849410,0.0-123.0-1.0,"""event"",""trial"",""time""
""fullscreenenter"",""0"",""3151""
","
","
","""event"",""trial"",""time""
""fullscreenenter"",""0"",""3151""
","
",null,<p></p>,null,,,,,,,,,,,,,,,,,,,,,,,
,do_trial,228,854144,0.0-124.0-0.0,"""event"",""trial"",""time""
""fullscreenenter"",""0"",""3151""
","
","
","""event"",""trial"",""time""
""fullscreenenter"",""0"",""3151""
","
",176.6,,,,,,,,51,"0,0,0",1,forest,68,probe-140,0.337600821,0.116343676,0.489566794,0,,,,,,,,
,html-keyboard-response,229,855152,0.0-124.0-1.0,"""event"",""trial"",""time""
""fullscreenenter"",""0"",""3151""
","
","
","""event"",""trial"",""time""
""fullscreenenter"",""0"",""3151""
","
",null,<p></p>,null,,,,,,,,,,,,,,,,,,,,,,,
,do_trial,230,860012,0.0-125.0-0.0,"""event"",""trial"",""time""
""fullscreenenter"",""0"",""3151""
","
","
","""event"",""trial"",""time""
""fullscreenenter"",""0"",""3151""
","
",304.3,,,,,,,,50,"1,0,0",1,forest,69,probe-44,0.259047464,0.074758066,0.633640849,0,,,,,,,,
,html-keyboard-response,231,861020,0.0-125.0-1.0,"""event"",""trial"",""time""
""fullscreenenter"",""0"",""3151""
","
","
","""event"",""trial"",""time""
""fullscreenenter"",""0"",""3151""
","
",null,<p></p>,null,,,,,,,,,,,,,,,,,,,,,,,
,do_bye,232,862529,0.0-126.0-0.0,"""event"",""trial"",""time""
""fullscreenenter"",""0"",""3151""
","
","
","""event"",""trial"",""time""
""fullscreenenter"",""0"",""3151""
","
",null,,,,,,,,null,,,,,,,,,,,,,,,,,
,break,233,863566,0.0-126.0-1.0,"""event"",""trial"",""time""
""fullscreenenter"",""0"",""3151""
","
","
","""event"",""trial"",""time""
""fullscreenenter"",""0"",""3151""
","
",1035,"<div class='center'><p>Time to take a quick break! You have 2 minutes to rest, but you can move on sooner if you'd like.</p><p> Press the <b>space bar</b> to continue.</p></div>",32,,,,,,,,,,,,,,,,,,,,,,,
,do_travel,234,872577,0.0-127.0-0.0,"""event"",""trial"",""time""
""fullscreenenter"",""0"",""3151""
","
","
","""event"",""trial"",""time""
""fullscreenenter"",""0"",""3151""
","
",null,,,,,,,,null,,,,,,,,,,,,,,,,,
,do_welcome,235,876592,0.0-127.0-1.0,"""event"",""trial"",""time""
""fullscreenenter"",""0"",""3151""
","
","
","""event"",""trial"",""time""
""fullscreenenter"",""0"",""3151""
","
",null,,,,,,,,null,,,,,,,,,,,,,,,,,
,do_trial,236,882647,0.0-128.0-0.0,"""event"",""trial"",""time""
""fullscreenenter"",""0"",""3151""
","
","
","""event"",""trial"",""time""
""fullscreenenter"",""0"",""3151""
","
",null,,,,,,,,null,"0,0,1",2,coast,70,probe-163,0.388186627,0.073677099,1,,,,,,,,,
,html-keyboard-response,237,883650,0.0-128.0-1.0,"""event"",""trial"",""time""
""fullscreenenter"",""0"",""3151""
","
","
","""event"",""trial"",""time""
""fullscreenenter"",""0"",""3151""
","
",null,<p></p>,null,,,,,,,,,,,,,,,,,,,,,,,
,do_trial,238,890194,0.0-129.0-0.0,"""event"",""trial"",""time""
""fullscreenenter"",""0"",""3151""
","
","
","""event"",""trial"",""time""
""fullscreenenter"",""0"",""3151""
","
",1988.1,,,,,,,,50,"0,1,1",2,coast,71,probe-115,0.279223055,0.058806017,1,1,,,,,,,,
,html-keyboard-response,239,891201,0.0-129.0-1.0,"""event"",""trial"",""time""
""fullscreenenter"",""0"",""3151""
","
","
","""event"",""trial"",""time""
""fullscreenenter"",""0"",""3151""
","
",null,<p></p>,null,,,,,,,,,,,,,,,,,,,,,,,
,do_trial,240,896152,0.0-130.0-0.0,"""event"",""trial"",""time""
""fullscreenenter"",""0"",""3151""
","
","
","""event"",""trial"",""time""
""fullscreenenter"",""0"",""3151""
","
",396,,,,,,,,49,"0,0,1",2,coast,72,probe-193,0.416052117,0.072012956,0.772465332,0,,,,,,,,
,html-keyboard-response,241,897160,0.0-130.0-1.0,"""event"",""trial"",""time""
""fullscreenenter"",""0"",""3151""
","
","
","""event"",""trial"",""time""
""fullscreenenter"",""0"",""3151""
","
",null,<p></p>,null,,,,,,,,,,,,,,,,,,,,,,,
,do_trial,242,902186,0.0-131.0-0.0,"""event"",""trial"",""time""
""fullscreenenter"",""0"",""3151""
","
","
","""event"",""trial"",""time""
""fullscreenenter"",""0"",""3151""
","
",471.3,,,,,,,,51,"0,0,1",2,coast,73,probe-79,0.470418896,0.087206276,0.547696121,1,,,,,,,,
,html-keyboard-response,243,903194,0.0-131.0-1.0,"""event"",""trial"",""time""
""fullscreenenter"",""0"",""3151""
","
","
","""event"",""trial"",""time""
""fullscreenenter"",""0"",""3151""
","
",null,<p></p>,null,,,,,,,,,,,,,,,,,,,,,,,
,do_trial,244,908072,0.0-132.0-0.0,"""event"",""trial"",""time""
""fullscreenenter"",""0"",""3151""
","
","
","""event"",""trial"",""time""
""fullscreenenter"",""0"",""3151""
","
",331,,,,,,,,51,"1,0,0",2,coast,74,probe-101,0.566466841,0.19811591,0.568881363,0,,,,,,,,
,html-keyboard-response,245,909076,0.0-132.0-1.0,"""event"",""trial"",""time""
""fullscreenenter"",""0"",""3151""
","
","
","""event"",""trial"",""time""
""fullscreenenter"",""0"",""3151""
","
",null,<p></p>,null,,,,,,,,,,,,,,,,,,,,,,,
,do_trial,246,913879,0.0-133.0-0.0,"""event"",""trial"",""time""
""fullscreenenter"",""0"",""3151""
","
","
","""event"",""trial"",""time""
""fullscreenenter"",""0"",""3151""
","
",273.4,,,,,,,,50,"0,0,0",2,coast,75,probe-134,0.38170679,0.097686169,0.650589727,0,,,,,,,,
,html-keyboard-response,247,914887,0.0-133.0-1.0,"""event"",""trial"",""time""
""fullscreenenter"",""0"",""3151""
","
","
","""event"",""trial"",""time""
""fullscreenenter"",""0"",""3151""
","
",null,<p></p>,null,,,,,,,,,,,,,,,,,,,,,,,
,do_trial,248,919802,0.0-134.0-0.0,"""event"",""trial"",""time""
""fullscreenenter"",""0"",""3151""
","
","
","""event"",""trial"",""time""
""fullscreenenter"",""0"",""3151""
","
",358.7,,,,,,,,49,"1,0,1",2,coast,76,probe-88,0.341577547,0.158774225,0.709405327,1,,,,,,,,
,html-keyboard-response,249,920810,0.0-134.0-1.0,"""event"",""trial"",""time""
""fullscreenenter"",""0"",""3151""
","
","
","""event"",""trial"",""time""
""fullscreenenter"",""0"",""3151""
","
",null,<p></p>,null,,,,,,,,,,,,,,,,,,,,,,,
,do_trial,250,925729,0.0-135.0-0.0,"""event"",""trial"",""time""
""fullscreenenter"",""0"",""3151""
","
","
","""event"",""trial"",""time""
""fullscreenenter"",""0"",""3151""
","
",367.4,,,,,,,,49,"0,0,1",2,coast,77,probe-80,0.343472369,0.101943272,0.771038283,0,,,,,,,,
,html-keyboard-response,251,926732,0.0-135.0-1.0,"""event"",""trial"",""time""
""fullscreenenter"",""0"",""3151""
","
","
","""event"",""trial"",""time""
""fullscreenenter"",""0"",""3151""
","
",null,<p></p>,null,,,,,,,,,,,,,,,,,,,,,,,
,do_trial,252,931721,0.0-136.0-0.0,"""event"",""trial"",""time""
""fullscreenenter"",""0"",""3151""
","
","
","""event"",""trial"",""time""
""fullscreenenter"",""0"",""3151""
","
",431.3,,,,,,,,49,"1,0,1",2,coast,78,probe-143,0.321120854,0.103673912,0.634910828,1,,,,,,,,
,html-keyboard-response,253,932729,0.0-136.0-1.0,"""event"",""trial"",""time""
""fullscreenenter"",""0"",""3151""
","
","
","""event"",""trial"",""time""
""fullscreenenter"",""0"",""3151""
","
",null,<p></p>,null,,,,,,,,,,,,,,,,,,,,,,,
,do_trial,254,937486,0.0-137.0-0.0,"""event"",""trial"",""time""
""fullscreenenter"",""0"",""3151""
","
","
","""event"",""trial"",""time""
""fullscreenenter"",""0"",""3151""
","
",208.7,,,,,,,,49,"1,0,1",2,coast,79,probe-213,0.406095821,0.137523097,0.620103074,1,,,,,,,,
,html-keyboard-response,255,938494,0.0-137.0-1.0,"""event"",""trial"",""time""
""fullscreenenter"",""0"",""3151""
","
","
","""event"",""trial"",""time""
""fullscreenenter"",""0"",""3151""
","
",null,<p></p>,null,,,,,,,,,,,,,,,,,,,,,,,
,do_trial,256,944169,0.0-138.0-0.0,"""event"",""trial"",""time""
""fullscreenenter"",""0"",""3151""
","
","
","""event"",""trial"",""time""
""fullscreenenter"",""0"",""3151""
","
",1129.5,,,,,,,,49,"1,0,1",2,coast,80,probe-131,0.31770165,0.057812137,0.725639464,1,,,,,,,,
,html-keyboard-response,257,945176,0.0-138.0-1.0,"""event"",""trial"",""time""
""fullscreenenter"",""0"",""3151""
","
","
","""event"",""trial"",""time""
""fullscreenenter"",""0"",""3151""
","
",null,<p></p>,null,,,,,,,,,,,,,,,,,,,,,,,
,do_trial,258,951242,0.0-139.0-0.0,"""event"",""trial"",""time""
""fullscreenenter"",""0"",""3151""
","
","
","""event"",""trial"",""time""
""fullscreenenter"",""0"",""3151""
","
",null,,,,,,,,null,"0,0,1",2,coast,81,probe-73,0.219324353,0.250047745,0.740105057,,,,,,,,,
,html-keyboard-response,259,952250,0.0-139.0-1.0,"""event"",""trial"",""time""
""fullscreenenter"",""0"",""3151""
","
","
","""event"",""trial"",""time""
""fullscreenenter"",""0"",""3151""
","
",null,<p></p>,null,,,,,,,,,,,,,,,,,,,,,,,
,do_trial,260,959385,0.0-140.0-0.0,"""event"",""trial"",""time""
""fullscreenenter"",""0"",""3151""
","
","
","""event"",""trial"",""time""
""fullscreenenter"",""0"",""3151""
","
",2577.5,,,,,,,,50,"0,0,0",2,coast,82,probe-62,0.436209736,0.122735712,0.580983523,0,,,,,,,,
,html-keyboard-response,261,960393,0.0-140.0-1.0,"""event"",""trial"",""time""
""fullscreenenter"",""0"",""3151""
","
","
","""event"",""trial"",""time""
""fullscreenenter"",""0"",""3151""
","
",null,<p></p>,null,,,,,,,,,,,,,,,,,,,,,,,
,do_trial,262,965329,0.0-141.0-0.0,"""event"",""trial"",""time""
""fullscreenenter"",""0"",""3151""
","
","
","""event"",""trial"",""time""
""fullscreenenter"",""0"",""3151""
","
",389.7,,,,,,,,50,"0,1,1",2,coast,83,probe-183,0.435033095,0.176791704,0.469268148,1,,,,,,,,
,html-keyboard-response,263,966337,0.0-141.0-1.0,"""event"",""trial"",""time""
""fullscreenenter"",""0"",""3151""
","
","
","""event"",""trial"",""time""
""fullscreenenter"",""0"",""3151""
","
",null,<p></p>,null,,,,,,,,,,,,,,,,,,,,,,,
,do_trial,264,972284,0.0-142.0-0.0,"""event"",""trial"",""time""
""fullscreenenter"",""0"",""3151""
","
","
","""event"",""trial"",""time""
""fullscreenenter"",""0"",""3151""
","
",1390,,,,,,,,51,"1,0,0",2,coast,84,probe-06,0.712334111,0.167874867,0.328170831,0,,,,,,,,
,html-keyboard-response,265,973292,0.0-142.0-1.0,"""event"",""trial"",""time""
""fullscreenenter"",""0"",""3151""
","
","
","""event"",""trial"",""time""
""fullscreenenter"",""0"",""3151""
","
",null,<p></p>,null,,,,,,,,,,,,,,,,,,,,,,,
,do_trial,266,978442,0.0-143.0-0.0,"""event"",""trial"",""time""
""fullscreenenter"",""0"",""3151""
","
","
","""event"",""trial"",""time""
""fullscreenenter"",""0"",""3151""
","
",598.8,,,,,,,,51,"1,1,0",2,coast,85,probe-98,0.636987879,0.199935698,0.399598513,0,,,,,,,,
,html-keyboard-response,267,979449,0.0-143.0-1.0,"""event"",""trial"",""time""
""fullscreenenter"",""0"",""3151""
","
","
","""event"",""trial"",""time""
""fullscreenenter"",""0"",""3151""
","
",null,<p></p>,null,,,,,,,,,,,,,,,,,,,,,,,
,do_trial,268,986284,0.0-144.0-0.0,"""event"",""trial"",""time""
""fullscreenenter"",""0"",""3151""
","
","
","""event"",""trial"",""time""
""fullscreenenter"",""0"",""3151""
","
",2279.7,,,,,,,,49,"1,1,0",2,coast,86,probe-152,0.584050501,0.124742974,0.362541907,1,,,,,,,,
,html-keyboard-response,269,987288,0.0-144.0-1.0,"""event"",""trial"",""time""
""fullscreenenter"",""0"",""3151""
","
","
","""event"",""trial"",""time""
""fullscreenenter"",""0"",""3151""
","
",null,<p></p>,null,,,,,,,,,,,,,,,,,,,,,,,
,do_trial,270,992187,0.0-145.0-0.0,"""event"",""trial"",""time""
""fullscreenenter"",""0"",""3151""
","
","
","""event"",""trial"",""time""
""fullscreenenter"",""0"",""3151""
","
",339.7,,,,,,,,49,"0,1,0",2,coast,87,probe-32,0.665839733,0.066513302,0.28426093,0,,,,,,,,
,html-keyboard-response,271,993195,0.0-145.0-1.0,"""event"",""trial"",""time""
""fullscreenenter"",""0"",""3151""
","
","
","""event"",""trial"",""time""
""fullscreenenter"",""0"",""3151""
","
",null,<p></p>,null,,,,,,,,,,,,,,,,,,,,,,,
,do_trial,272,998120,0.0-146.0-0.0,"""event"",""trial"",""time""
""fullscreenenter"",""0"",""3151""
","
","
","""event"",""trial"",""time""
""fullscreenenter"",""0"",""3151""
","
",377.4,,,,,,,,50,"1,0,0",2,coast,88,probe-219,0.720352332,0.071371338,0.41283806,0,,,,,,,,
,html-keyboard-response,273,999128,0.0-146.0-1.0,"""event"",""trial"",""time""
""fullscreenenter"",""0"",""3151""
","
","
","""event"",""trial"",""time""
""fullscreenenter"",""0"",""3151""
","
",null,<p></p>,null,,,,,,,,,,,,,,,,,,,,,,,
,do_trial,274,1004102,0.0-147.0-0.0,"""event"",""trial"",""time""
""fullscreenenter"",""0"",""3151""
","
","
","""event"",""trial"",""time""
""fullscreenenter"",""0"",""3151""
","
",416.2,,,,,,,,49,"1,0,0",2,coast,89,probe-181,0.704269674,0.073275998,0.391921713,1,,,,,,,,
,html-keyboard-response,275,1005109,0.0-147.0-1.0,"""event"",""trial"",""time""
""fullscreenenter"",""0"",""3151""
","
","
","""event"",""trial"",""time""
""fullscreenenter"",""0"",""3151""
","
",null,<p></p>,null,,,,,,,,,,,,,,,,,,,,,,,
,do_trial,276,1010170,0.0-148.0-0.0,"""event"",""trial"",""time""
""fullscreenenter"",""0"",""3151""
","
","
","""event"",""trial"",""time""
""fullscreenenter"",""0"",""3151""
","
",510.6,,,,,,,,49,"0,0,0",2,coast,90,probe-158,0.665608431,0.235553233,0.356505899,0,,,,,,,,
,html-keyboard-response,277,1011174,0.0-148.0-1.0,"""event"",""trial"",""time""
""fullscreenenter"",""0"",""3151""
","
","
","""event"",""trial"",""time""
""fullscreenenter"",""0"",""3151""
","
",null,<p></p>,null,,,,,,,,,,,,,,,,,,,,,,,
,do_trial,278,1016316,0.0-149.0-0.0,"""event"",""trial"",""time""
""fullscreenenter"",""0"",""3151""
","
","
","""event"",""trial"",""time""
""fullscreenenter"",""0"",""3151""
","
",589.8,,,,,,,,49,"1,1,1",2,coast,91,probe-104,0.628735688,0.218527305,0.241918723,1,,,,,,,,
,html-keyboard-response,279,1017324,0.0-149.0-1.0,"""event"",""trial"",""time""
""fullscreenenter"",""0"",""3151""
","
","
","""event"",""trial"",""time""
""fullscreenenter"",""0"",""3151""
","
",null,<p></p>,null,,,,,,,,,,,,,,,,,,,,,,,
,do_trial,280,1023420,0.0-150.0-0.0,"""event"",""trial"",""time""
""fullscreenenter"",""0"",""3151""
","
","
","""event"",""trial"",""time""
""fullscreenenter"",""0"",""3151""
","
",1548.9,,,,,,,,49,"1,0,0",2,coast,92,probe-226,0.581941408,0.151467174,0.384061304,1,,,,,,,,
,html-keyboard-response,281,1024424,0.0-150.0-1.0,"""event"",""trial"",""time""
""fullscreenenter"",""0"",""3151""
","
","
","""event"",""trial"",""time""
""fullscreenenter"",""0"",""3151""
","
",null,<p></p>,null,,,,,,,,,,,,,,,,,,,,,,,
,do_trial,282,1030629,0.0-151.0-0.0,"""event"",""trial"",""time""
""fullscreenenter"",""0"",""3151""
","
","
","""event"",""trial"",""time""
""fullscreenenter"",""0"",""3151""
","
",1655,,,,,,,,49,"0,0,0",2,coast,93,probe-24,0.615009595,0.120209978,0.275026307,0,,,,,,,,
,html-keyboard-response,283,1031638,0.0-151.0-1.0,"""event"",""trial"",""time""
""fullscreenenter"",""0"",""3151""
","
","
","""event"",""trial"",""time""
""fullscreenenter"",""0"",""3151""
","
",null,<p></p>,null,,,,,,,,,,,,,,,,,,,,,,,
,do_trial,284,1036839,0.0-152.0-0.0,"""event"",""trial"",""time""
""fullscreenenter"",""0"",""3151""
","
","
","""event"",""trial"",""time""
""fullscreenenter"",""0"",""3151""
","
",645.8,,,,,,,,50,"0,0,1",2,coast,94,probe-230,0.542972456,0.068678218,0.209378872,0,,,,,,,,
,html-keyboard-response,285,1037847,0.0-152.0-1.0,"""event"",""trial"",""time""
""fullscreenenter"",""0"",""3151""
","
","
","""event"",""trial"",""time""
""fullscreenenter"",""0"",""3151""
","
",null,<p></p>,null,,,,,,,,,,,,,,,,,,,,,,,
,do_trial,286,1042400,0.0-153.0-0.0,"""event"",""trial"",""time""
""fullscreenenter"",""0"",""3151""
","
","
","""event"",""trial"",""time""
""fullscreenenter"",""0"",""3151""
","
",0,,,,,,,,51,"0,0,0",2,coast,95,probe-170,0.664542197,0.138029107,0.242752121,0,,,,,,,,
,html-keyboard-response,287,1043406,0.0-153.0-1.0,"""event"",""trial"",""time""
""fullscreenenter"",""0"",""3151""
","
","
","""event"",""trial"",""time""
""fullscreenenter"",""0"",""3151""
","
",null,<p></p>,null,,,,,,,,,,,,,,,,,,,,,,,
,do_trial,288,1050435,0.0-154.0-0.0,"""event"",""trial"",""time""
""fullscreenenter"",""0"",""3151""
","
","
","""event"",""trial"",""time""
""fullscreenenter"",""0"",""3151""
","
",2470.6,,,,,,,,49,"0,0,0",2,coast,96,probe-41,0.747532141,0.060057649,0.227896771,0,,,,,,,,
,html-keyboard-response,289,1051440,0.0-154.0-1.0,"""event"",""trial"",""time""
""fullscreenenter"",""0"",""3151""
","
","
","""event"",""trial"",""time""
""fullscreenenter"",""0"",""3151""
","
",null,<p></p>,null,,,,,,,,,,,,,,,,,,,,,,,
,do_trial,290,1056205,0.0-155.0-0.0,"""event"",""trial"",""time""
""fullscreenenter"",""0"",""3151""
","
","
","""event"",""trial"",""time""
""fullscreenenter"",""0"",""3151""
","
",219.2,,,,,,,,51,"1,1,0",2,coast,97,probe-48,0.705490434,0.21098239,0.22814894,0,,,,,,,,
,html-keyboard-response,291,1057213,0.0-155.0-1.0,"""event"",""trial"",""time""
""fullscreenenter"",""0"",""3151""
","
","
","""event"",""trial"",""time""
""fullscreenenter"",""0"",""3151""
","
",null,<p></p>,null,,,,,,,,,,,,,,,,,,,,,,,
,do_trial,292,1064666,0.0-156.0-0.0,"""event"",""trial"",""time""
""fullscreenenter"",""0"",""3151""
","
","
","""event"",""trial"",""time""
""fullscreenenter"",""0"",""3151""
","
",2901.7,,,,,,,,51,"1,1,0",2,coast,98,probe-225,0.59962717,0.280328663,0.453035863,0,,,,,,,,
,html-keyboard-response,293,1065674,0.0-156.0-1.0,"""event"",""trial"",""time""
""fullscreenenter"",""0"",""3151""
","
","
","""event"",""trial"",""time""
""fullscreenenter"",""0"",""3151""
","
",null,<p></p>,null,,,,,,,,,,,,,,,,,,,,,,,
,do_trial,294,1072733,0.0-157.0-0.0,"""event"",""trial"",""time""
""fullscreenenter"",""0"",""3151""
","
","
","""event"",""trial"",""time""
""fullscreenenter"",""0"",""3151""
","
",2511.1,,,,,,,,51,"0,0,0",2,coast,99,probe-179,0.605073769,0.217722718,0.357691609,0,,,,,,,,
,html-keyboard-response,295,1073737,0.0-157.0-1.0,"""event"",""trial"",""time""
""fullscreenenter"",""0"",""3151""
","
","
","""event"",""trial"",""time""
""fullscreenenter"",""0"",""3151""
","
",null,<p></p>,null,,,,,,,,,,,,,,,,,,,,,,,
,do_trial,296,1080683,0.0-158.0-0.0,"""event"",""trial"",""time""
""fullscreenenter"",""0"",""3151""
","
","
","""event"",""trial"",""time""
""fullscreenenter"",""0"",""3151""
","
",2395.7,,,,,,,,50,"0,0,1",2,coast,100,probe-177,0.627157945,0.185739438,0.299597025,0,,,,,,,,
,html-keyboard-response,297,1081691,0.0-158.0-1.0,"""event"",""trial"",""time""
""fullscreenenter"",""0"",""3151""
","
","
","""event"",""trial"",""time""
""fullscreenenter"",""0"",""3151""
","
",null,<p></p>,null,,,,,,,,,,,,,,,,,,,,,,,
,do_trial,298,1086555,0.0-159.0-0.0,"""event"",""trial"",""time""
""fullscreenenter"",""0"",""3151""
","
","
","""event"",""trial"",""time""
""fullscreenenter"",""0"",""3151""
","
",315.7,,,,,,,,51,"1,1,0",2,coast,101,probe-56,0.530237563,0.070778586,0.275299015,0,,,,,,,,
,html-keyboard-response,299,1087563,0.0-159.0-1.0,"""event"",""trial"",""time""
""fullscreenenter"",""0"",""3151""
","
","
","""event"",""trial"",""time""
""fullscreenenter"",""0"",""3151""
","
",null,<p></p>,null,,,,,,,,,,,,,,,,,,,,,,,
,do_trial,300,1094696,0.0-160.0-0.0,"""event"",""trial"",""time""
""fullscreenenter"",""0"",""3151""
","
","
","""event"",""trial"",""time""
""fullscreenenter"",""0"",""3151""
","
",2582.3,,,,,,,,51,"0,0,1",2,coast,102,probe-65,0.609476649,0.083504264,0.30662877,1,,,,,,,,
,html-keyboard-response,301,1095701,0.0-160.0-1.0,"""event"",""trial"",""time""
""fullscreenenter"",""0"",""3151""
","
","
","""event"",""trial"",""time""
""fullscreenenter"",""0"",""3151""
","
",null,<p></p>,null,,,,,,,,,,,,,,,,,,,,,,,
,do_trial,302,1101385,0.0-161.0-0.0,"""event"",""trial"",""time""
""fullscreenenter"",""0"",""3151""
","
","
","""event"",""trial"",""time""
""fullscreenenter"",""0"",""3151""
","
",1123.8,,,,,,,,50,"1,0,0",2,coast,103,probe-145,0.547201472,0.056461112,0.239493454,0,,,,,,,,
,html-keyboard-response,303,1102389,0.0-161.0-1.0,"""event"",""trial"",""time""
""fullscreenenter"",""0"",""3151""
","
","
","""event"",""trial"",""time""
""fullscreenenter"",""0"",""3151""
","
",null,<p></p>,null,,,,,,,,,,,,,,,,,,,,,,,
,do_trial,304,1108639,0.0-162.0-0.0,"""event"",""trial"",""time""
""fullscreenenter"",""0"",""3151""
","
","
","""event"",""trial"",""time""
""fullscreenenter"",""0"",""3151""
","
",1691.1,,,,,,,,51,"0,0,0",2,coast,104,probe-200,0.589427966,0.083681099,0.356155214,0,,,,,,,,
,html-keyboard-response,305,1109647,0.0-162.0-1.0,"""event"",""trial"",""time""
""fullscreenenter"",""0"",""3151""
","
","
","""event"",""trial"",""time""
""fullscreenenter"",""0"",""3151""
","
",null,<p></p>,null,,,,,,,,,,,,,,,,,,,,,,,
,do_trial,306,1115021,0.0-163.0-0.0,"""event"",""trial"",""time""
""fullscreenenter"",""0"",""3151""
","
","
","""event"",""trial"",""time""
""fullscreenenter"",""0"",""3151""
","
",814.2,,,,,,,,50,"0,0,0",2,coast,105,probe-94,0.500596096,0.084304921,0.465197418,0,,,,,,,,
,html-keyboard-response,307,1116029,0.0-163.0-1.0,"""event"",""trial"",""time""
""fullscreenenter"",""0"",""3151""
","
","
","""event"",""trial"",""time""
""fullscreenenter"",""0"",""3151""
","
",null,<p></p>,null,,,,,,,,,,,,,,,,,,,,,,,
,do_trial,308,1120741,0.0-164.0-0.0,"""event"",""trial"",""time""
""fullscreenenter"",""0"",""3151""
","
","
","""event"",""trial"",""time""
""fullscreenenter"",""0"",""3151""
","
",156.1,,,,,,,,50,"1,0,0",2,coast,106,probe-16,0.572277076,0.111548073,0.423798722,0,,,,,,,,
,html-keyboard-response,309,1121749,0.0-164.0-1.0,"""event"",""trial"",""time""
""fullscreenenter"",""0"",""3151""
","
","
","""event"",""trial"",""time""
""fullscreenenter"",""0"",""3151""
","
",null,<p></p>,null,,,,,,,,,,,,,,,,,,,,,,,
,do_trial,310,1126438,0.0-165.0-0.0,"""event"",""trial"",""time""
""fullscreenenter"",""0"",""3151""
","
","
","""event"",""trial"",""time""
""fullscreenenter"",""0"",""3151""
","
",144.1,,,,,,,,51,"1,0,0",2,coast,107,probe-118,0.559445023,0.078122921,0.406552591,0,,,,,,,,
,html-keyboard-response,311,1127443,0.0-165.0-1.0,"""event"",""trial"",""time""
""fullscreenenter"",""0"",""3151""
","
","
","""event"",""trial"",""time""
""fullscreenenter"",""0"",""3151""
","
",null,<p></p>,null,,,,,,,,,,,,,,,,,,,,,,,
,do_trial,312,1132389,0.0-166.0-0.0,"""event"",""trial"",""time""
""fullscreenenter"",""0"",""3151""
","
","
","""event"",""trial"",""time""
""fullscreenenter"",""0"",""3151""
","
",398.3,,,,,,,,49,"1,0,1",2,coast,108,probe-25,0.41287529,0.219751962,0.390548821,1,,,,,,,,
,html-keyboard-response,313,1133394,0.0-166.0-1.0,"""event"",""trial"",""time""
""fullscreenenter"",""0"",""3151""
","
","
","""event"",""trial"",""time""
""fullscreenenter"",""0"",""3151""
","
",null,<p></p>,null,,,,,,,,,,,,,,,,,,,,,,,
,do_trial,314,1138681,0.0-167.0-0.0,"""event"",""trial"",""time""
""fullscreenenter"",""0"",""3151""
","
","
","""event"",""trial"",""time""
""fullscreenenter"",""0"",""3151""
","
",740.4,,,,,,,,49,"1,1,0",2,coast,109,probe-168,0.545578947,0.289001172,0.368668394,1,,,,,,,,
,html-keyboard-response,315,1139689,0.0-167.0-1.0,"""event"",""trial"",""time""
""fullscreenenter"",""0"",""3151""
","
","
","""event"",""trial"",""time""
""fullscreenenter"",""0"",""3151""
","
",null,<p></p>,null,,,,,,,,,,,,,,,,,,,,,,,
,do_bye,316,1141197,0.0-168.0-0.0,"""event"",""trial"",""time""
""fullscreenenter"",""0"",""3151""
","
","
","""event"",""trial"",""time""
""fullscreenenter"",""0"",""3151""
","
",null,,,,,,,,null,,,,,,,,,,,,,,,,,
,break,317,1142353,0.0-168.0-1.0,"""event"",""trial"",""time""
""fullscreenenter"",""0"",""3151""
","
","
","""event"",""trial"",""time""
""fullscreenenter"",""0"",""3151""
","
",1154.1,"<div class='center'><p>Time to take a quick break! You have 2 minutes to rest, but you can move on sooner if you'd like.</p><p> Press the <b>space bar</b> to continue.</p></div>",32,,,,,,,,,,,,,,,,,,,,,,,
,do_travel,318,1151362,0.0-169.0-0.0,"""event"",""trial"",""time""
""fullscreenenter"",""0"",""3151""
","
","
","""event"",""trial"",""time""
""fullscreenenter"",""0"",""3151""
","
",null,,,,,,,,null,,,,,,,,,,,,,,,,,
,do_welcome,319,1155374,0.0-169.0-1.0,"""event"",""trial"",""time""
""fullscreenenter"",""0"",""3151""
","
","
","""event"",""trial"",""time""
""fullscreenenter"",""0"",""3151""
","
",null,,,,,,,,null,,,,,,,,,,,,,,,,,
,do_trial,320,1160647,0.0-170.0-0.0,"""event"",""trial"",""time""
""fullscreenenter"",""0"",""3151""
","
","
","""event"",""trial"",""time""
""fullscreenenter"",""0"",""3151""
","
",716.7,,,,,,,,49,"1,1,0",3,countryside,110,probe-121,1,0.441050509,0.315170669,1,,,,,,,,
,html-keyboard-response,321,1161655,0.0-170.0-1.0,"""event"",""trial"",""time""
""fullscreenenter"",""0"",""3151""
","
","
","""event"",""trial"",""time""
""fullscreenenter"",""0"",""3151""
","
",null,<p></p>,null,,,,,,,,,,,,,,,,,,,,,,,
,do_trial,322,1166963,0.0-171.0-0.0,"""event"",""trial"",""time""
""fullscreenenter"",""0"",""3151""
","
","
","""event"",""trial"",""time""
""fullscreenenter"",""0"",""3151""
","
",752.1,,,,,,,,49,"1,1,0",3,countryside,111,probe-75,1,0.286333066,0.451935078,1,,,,,,,,
,html-keyboard-response,323,1167971,0.0-171.0-1.0,"""event"",""trial"",""time""
""fullscreenenter"",""0"",""3151""
","
","
","""event"",""trial"",""time""
""fullscreenenter"",""0"",""3151""
","
",null,<p></p>,null,,,,,,,,,,,,,,,,,,,,,,,
,do_trial,324,1173447,0.0-172.0-0.0,"""event"",""trial"",""time""
""fullscreenenter"",""0"",""3151""
","
","
","""event"",""trial"",""time""
""fullscreenenter"",""0"",""3151""
","
",923,,,,,,,,49,"1,0,0",3,countryside,112,probe-64,0.762901339,0.137524055,0.315447241,1,,,,,,,,
,html-keyboard-response,325,1174453,0.0-172.0-1.0,"""event"",""trial"",""time""
""fullscreenenter"",""0"",""3151""
","
","
","""event"",""trial"",""time""
""fullscreenenter"",""0"",""3151""
","
",null,<p></p>,null,,,,,,,,,,,,,,,,,,,,,,,
,do_trial,326,1179439,0.0-173.0-0.0,"""event"",""trial"",""time""
""fullscreenenter"",""0"",""3151""
","
","
","""event"",""trial"",""time""
""fullscreenenter"",""0"",""3151""
","
",431.3,,,,,,,,49,"1,0,1",3,countryside,113,probe-196,0.707923034,0.062897017,0.302081967,1,,,,,,,,
,html-keyboard-response,327,1180447,0.0-173.0-1.0,"""event"",""trial"",""time""
""fullscreenenter"",""0"",""3151""
","
","
","""event"",""trial"",""time""
""fullscreenenter"",""0"",""3151""
","
",null,<p></p>,null,,,,,,,,,,,,,,,,,,,,,,,
,do_trial,328,1185054,0.0-174.0-0.0,"""event"",""trial"",""time""
""fullscreenenter"",""0"",""3151""
","
","
","""event"",""trial"",""time""
""fullscreenenter"",""0"",""3151""
","
",52.2,,,,,,,,49,"1,0,1",3,countryside,114,probe-20,0.611165561,0.11366441,0.303305757,1,,,,,,,,
,html-keyboard-response,329,1186062,0.0-174.0-1.0,"""event"",""trial"",""time""
""fullscreenenter"",""0"",""3151""
","
","
","""event"",""trial"",""time""
""fullscreenenter"",""0"",""3151""
","
",null,<p></p>,null,,,,,,,,,,,,,,,,,,,,,,,
,do_trial,330,1190704,0.0-175.0-0.0,"""event"",""trial"",""time""
""fullscreenenter"",""0"",""3151""
","
","
","""event"",""trial"",""time""
""fullscreenenter"",""0"",""3151""
","
",95.3,,,,,,,,49,"1,0,0",3,countryside,115,probe-133,0.538444186,0.058329126,0.176279019,1,,,,,,,,
,html-keyboard-response,331,1191708,0.0-175.0-1.0,"""event"",""trial"",""time""
""fullscreenenter"",""0"",""3151""
","
","
","""event"",""trial"",""time""
""fullscreenenter"",""0"",""3151""
","
",null,<p></p>,null,,,,,,,,,,,,,,,,,,,,,,,
,do_trial,332,1196783,0.0-176.0-0.0,"""event"",""trial"",""time""
""fullscreenenter"",""0"",""3151""
","
","
","""event"",""trial"",""time""
""fullscreenenter"",""0"",""3151""
","
",518.7,,,,,,,,49,"1,0,0",3,countryside,116,probe-229,0.545508708,0.108473373,0.292107301,1,,,,,,,,
,html-keyboard-response,333,1197786,0.0-176.0-1.0,"""event"",""trial"",""time""
""fullscreenenter"",""0"",""3151""
","
","
","""event"",""trial"",""time""
""fullscreenenter"",""0"",""3151""
","
",null,<p></p>,null,,,,,,,,,,,,,,,,,,,,,,,
,do_trial,334,1202423,0.0-177.0-0.0,"""event"",""trial"",""time""
""fullscreenenter"",""0"",""3151""
","
","
","""event"",""trial"",""time""
""fullscreenenter"",""0"",""3151""
","
