"success","trial_type","trial_index","time_elapsed","internal_node_id","rt","stimulus","key_press","subject_id","response","choice_outcomes","context_n","context_img_id","trial_n","probe_img_id","pR_red","pR_white","pR_black","outcome","contextArray_ind","validImageProbes","invalidImageProbes","pRew_Red","pRew_White","pRew_Black","availableForMemProbe","choice_blocks"
"true","fullscreen","0","26645","0.0-0.0","","","","","","","","","","","","","","","","","","","","","",""
"","pavlovia","1","26649","0.0-1.0","","","","","","","","","","","","","","","","","","","","","",""
"","html-keyboard-response","2","42239","0.0-2.0","15588.699999988079","<div class='center'><p>Welcome! This is the first day of the experiment which will last ~30 minutes. In this experiment, you are the head captain of a pirate ship traveling around the world to different places. You will complete several different tasks during this experiment. Here is an overview of these tasks:</p><br><p>Day 1</p><p>1. Tutorial and quiz</p><p>2. Pick a pirate game in 6 different places</p><br><p>Day 2</p><p>3. Pick a pirate game and memory game</p><p>4. Final questions and payment</p><br><p>If you complete the entire experiment, you will receive $15 and a possible bonus payment.</p><p><b>[Press the space bar to begin the tutorial]</b></p></div>","32","61662bcd6c7cea0cdb59abf8","","","","","","","","","","","","","","","","","",""
"","html-keyboard-response","3","47224","0.0-3.0","4983.199999988079","<div class='center'><p>You’ll stop at these 6 islands on your journey. You'll be able to see them in the distance from your ship.</p><p><img src='run_exp/static/images/contexts/all_contexts.png' height='500'></p><p><b>[Press the space bar to continue]</b></p></div>","32","","","","","","","","","","","","","","","","","","",""
"","html-keyboard-response","4","57305","0.0-4.0","10080.5","<div class='center'><p> The pirates on your ship will rob other ships as they leave island</p> These ships have just sold their things to the people living on the island, so they will have lots and lots of gold on them.</p><p><img src='run_exp/static/images/tutorial/ship_center.png' height='400'></p><p><b>[Press the space bar to continue]</b></p></div>","32","","","","","","","","","","","","","","","","","","",""
"","html-keyboard-response","5","68972","0.0-5.0","11665.399999976158","<div class='center'><p>As the head captain, you do not have to rob any ships yourself.</p><p>Another pirate will be doing the robbing for you. </p><p><img src='run_exp/static/images/tutorial/pirates_all_crop.png' height='200'></p><p>If they could rob the ship, then you will get a stack of gold coins like this:</p><p><img src='run_exp/static/images/tutorial/reward.png' height='150'></p><p> If they couldn't rob the ship, then you will get no gold coins and you'll see a big red x like this: </p><p><img src='run_exp/static/images/tutorial/reward_no.png' height='150'></p><p> How much bonus money you make is based on how many gold coins you collect.</p><p><b>[Press the space bar to continue]</b></p><div>","32","","","","","","","","","","","","","","","","","","",""
"","html-keyboard-response","6","82549","0.0-6.0","13575.5","<div class='center'><p>Even the most skilled pirate can not rob EVERY ship.</p><p> Some ships will have very strong defenses against pirate attacks.</p><p> For example, blue beard, here, is very, very good at robbing ships.</p><p> You can press the <b>‘1’</b> button on the keyboard to choose him.</p><p> Try choosing him 10 times to see how often he can rob a ship. </p><p><img src='run_exp/static/images/tutorial/blue.png' height='500'></p></div>","49","","","","","","","","","","","","","","","","","","",""
"","html-keyboard-response","7","84055","0.0-7.0","null","<div class='center'><p><img src='run_exp/static/images/tutorial/blue_win.png' height='500'></p></div>","null","","","","","","","","","","","","","","","","","","",""
"","html-keyboard-response","8","84817","0.0-8.0","760.2999999523163","<div class='center'><img src='run_exp/static/images/tutorial/blue.png' height='500'></p></div>","49","","","","","","","","","","","","","","","","","","",""
"","html-keyboard-response","9","86321","0.0-9.0","null","<div class='center'><p><img src='run_exp/static/images/tutorial/blue_win.png' height='500'></p></div>","null","","","","","","","","","","","","","","","","","","",""
"","html-keyboard-response","10","86851","0.0-10.0","528.5","<div class='center'><img src='run_exp/static/images/tutorial/blue.png' height='500'></p></div>","49","","","","","","","","","","","","","","","","","","",""
"","html-keyboard-response","11","88358","0.0-11.0","null","<div class='center'><p><img src='run_exp/static/images/tutorial/blue_win.png' height='500'></p></div>","null","","","","","","","","","","","","","","","","","","",""
"","html-keyboard-response","12","88636","0.0-12.0","277.80000001192093","<div class='center'><img src='run_exp/static/images/tutorial/blue.png' height='500'></p></div>","49","","","","","","","","","","","","","","","","","","",""
"","html-keyboard-response","13","90143","0.0-13.0","null","<div class='center'><p><img src='run_exp/static/images/tutorial/blue_no_win.png' height='500'></p></div>","null","","","","","","","","","","","","","","","","","","",""
"","html-keyboard-response","14","90472","0.0-14.0","328.5","<div class='center'><img src='run_exp/static/images/tutorial/blue.png' height='500'></p></div>","49","","","","","","","","","","","","","","","","","","",""
"","html-keyboard-response","15","91978","0.0-15.0","null","<div class='center'><p><img src='run_exp/static/images/tutorial/blue_win.png' height='500'></p></div>","null","","","","","","","","","","","","","","","","","","",""
"","html-keyboard-response","16","92444","0.0-16.0","464.10000002384186","<div class='center'><img src='run_exp/static/images/tutorial/blue.png' height='500'></p></div>","49","","","","","","","","","","","","","","","","","","",""
"","html-keyboard-response","17","93948","0.0-17.0","null","<div class='center'><p><img src='run_exp/static/images/tutorial/blue_win.png' height='500'></p></div>","null","","","","","","","","","","","","","","","","","","",""
"","html-keyboard-response","18","94357","0.0-18.0","408.5","<div class='center'><img src='run_exp/static/images/tutorial/blue.png' height='500'></p></div>","49","","","","","","","","","","","","","","","","","","",""
"","html-keyboard-response","19","95860","0.0-19.0","null","<div class='center'><p><img src='run_exp/static/images/tutorial/blue_win.png' height='500'></p></div>","null","","","","","","","","","","","","","","","","","","",""
"","html-keyboard-response","20","96165","0.0-20.0","303.30000001192093","<div class='center'><img src='run_exp/static/images/tutorial/blue.png' height='500'></p></div>","49","","","","","","","","","","","","","","","","","","",""
"","html-keyboard-response","21","97670","0.0-21.0","null","<div class='center'><p><img src='run_exp/static/images/tutorial/blue_no_win.png' height='500'></p></div>","null","","","","","","","","","","","","","","","","","","",""
"","html-keyboard-response","22","98013","0.0-22.0","342.19999998807907","<div class='center'><img src='run_exp/static/images/tutorial/blue.png' height='500'></p></div>","49","","","","","","","","","","","","","","","","","","",""
"","html-keyboard-response","23","99514","0.0-23.0","null","<div class='center'><p><img src='run_exp/static/images/tutorial/blue_win.png' height='500'></p></div>","null","","","","","","","","","","","","","","","","","","",""
"","html-keyboard-response","24","99923","0.0-24.0","407.9000000357628","<div class='center'><img src='run_exp/static/images/tutorial/blue.png' height='500'></p></div>","49","","","","","","","","","","","","","","","","","","",""
"","html-keyboard-response","25","101424","0.0-25.0","null","<div class='center'><p><img src='run_exp/static/images/tutorial/blue_win.png' height='500'></p></div>","null","","","","","","","","","","","","","","","","","","",""
"","html-keyboard-response","26","103817","0.0-26.0","2391.800000011921","<div class='center'><p> See, he could rob the ships most of the time but not every time. </p><p><b>[Press the space bar to continue]</b></p></div>","32","","","","","","","","","","","","","","","","","","",""
"","html-keyboard-response","27","106988","0.0-27.0","3170","<div class='center'><p>You will get to choose which of three pirates you want to rob the next ship. <p>Press the <b>‘1’</b> button on your keyboard to pick the pirate with the red beard.</p><p> Press <b>‘2’</b> to pick the pirate with the white beard.</p><p> Press <b>‘3’</b> to pick the pirate with the black beard.</p><p>Try picking a pirate now!</p><p><img src='run_exp/static/images/tutorial/all_pirates.png' height='500'></p></div>","50","","","","","","","","","","","","","","","","","","",""
"","html-keyboard-response","28","108844","0.0-28.0-0.0","1853.5","<div class='center'><p>This pirate could rob the ship!</p><p><img src='run_exp/static/images/tutorial/white_win.png' height='500'></p><p><b>[Press the space bar to continue]</b></p></div>","32","","","","","","","","","","","","","","","","","","",""
"","html-keyboard-response","29","109766","0.0-28.0-1.0","920.8999999761581","<div class='center'><p>Now try choosing another</p><p><img src='run_exp/static/images/tutorial/all_pirates.png' height='500'></p></div>","51","","","","","","","","","","","","","","","","","","",""
"","html-keyboard-response","30","111112","0.0-29.0-0.0","1344.6000000238419","<div class='center'><p>This pirate could not rob the ship!</p><p><img src='run_exp/static/images/tutorial/black_no_win.png' height='500'></p><p><b>[Press the space bar to continue]</b></p></div>","32","","","","","","","","","","","","","","","","","","",""
"","html-keyboard-response","31","118306","0.0-30.0-0.0","7193","<div class='center'><p>If you don’t make your choice fast enough, you’ll have to wait a few seconds before you can make another one. </p><p>You can’t collect more gold coins. You just have to sit and wait.</p><p><img src='run_exp/static/images/miscellaneous/hurry_up.png' height='500'></p><p><b>[Press the space bar to continue]</b></p></div>","32","","","","","","","","","","","","","","","","","","",""
"","html-keyboard-response","32","139320","0.0-30.0-1.0","21013","<div class='center'><p>Once you choose a pirate, you’ll be shown the ship they are robbing.</p><p>You will never rob the same ship twice.</p><p>Ships can be told apart from one another by the image on them.</p><p> Every time you see a ship, you will have to remember on which island you saw it.</p><p> Remembering correctly will help you win more bonus money!</p><p>A helpful strategy is to try to come up with a story of the object on the ship interacting with the current island scene.</p><p> For example, here, you could imagine a mug full of water in the desert. </p><p>For a ship with an apple on it on the forest island, you could imagine an apple falling from a tree in the forest.</p><p><img src='run_exp/static/images/tutorial/example_probe.png' height='500'></p><p><b>[Press the space bar to continue]</b></p></div>","32","","","","","","","","","","","","","","","","","","",""
"","html-keyboard-response","33","144284","0.0-30.0-2.0","4964","<div class='center'><p>How good a pirate is at robbing ships will depend on the current island.</p><p> A pirate may have visited the island many times before and gained a lot of practice robbing ships there.</p><p>So, they're more likely to bring back gold coins than a pirate who has never visited this island before. </p><p><b>[Press the space bar to continue]</b></p></div>","32","","","","","","","","","","","","","","","","","","",""
"","html-keyboard-response","34","164315","0.0-30.0-3.0","20029.099999964237","<div class='center'><p>How good a pirate is at robbing ships can also change over the time spent on the island<p> Ships may hear from islanders about the pirates coming and will improve their protection against the attack. This may make it harder to rob them.</p><p> Ships may also become lazy and lower their protection. This may make it easier to rob them.</p><br><p>Things are always changing on the high seas! So, try your best to pay attention!</p><p><img src='run_exp/static/images/tutorial/contingency.png' height='500'></p><p><b>[Press the space bar to continue]</b></p></div>","32","","","","","","","","","","","","","","","","","","",""
"","html-keyboard-response","35","224209","0.0-30.0-4.0","59893.30000001192","<div class='center'><p>Let's go over the instructions quickly again.You have two important things to do: </p><b><p> 1. Pick the pirate who is the best at robbing ships on the current island.</p></b><b><p> 2. Remember on which island a ship was robbed.</p> </b><p>How much bonus money you make is based on both. </p><br><p>Let’s try a practice game. The game will start by showing you the pirates. First pick a pirate using the <b> 1, 2, 3 </b> buttons on your keyboard. When you are shown a ship, try to remember the island you’re on by making up a story.</p><p> You only have 3 seconds to pick a pirate, so please make a choice quickly! If you are too slow, you’ll have to wait a bit during the time out.</p><p> Don’t feel rushed, but please do try to make a choice every time.</p><p>This is just a practice game, so you’re not playing for money. </p><p> Good luck, remember press <b>'1'</b> to choose red beard, <b>'2'</b> to choose white beard, and <b>'3'</b> to choose black beard</p><p><b>[Press the space bar to begin the practice game]</b></p></div>","32","","","","","","","","","","","","","","","","","","",""
"","do_welcome","36","225720","0.0-30.0-5.0","null","","","","null","","","","","","","","","","","","","","","","",""
"","do_trial","37","231086","0.0-30.0-6.0","849","","","","49","1,0,0","","","","","","","","","","","","","","","",""
"","html-keyboard-response","38","232092","0.0-31.0-0.0","null","<p></p>","null","","","","","","","","","","","","","","","","","","",""
"","do_trial","39","237962","0.0-31.0-1.0","1358.2999999523163","","","","50","1,1,0","","","","","","","","","","","","","","","",""
"","html-keyboard-response","40","238968","0.0-32.0-0.0","null","<p></p>","null","","","","","","","","","","","","","","","","","","",""
"","do_trial","41","244323","0.0-32.0-1.0","843.8000000119209","","","","49","1,0,1","","","","","","","","","","","","","","","",""
"","html-keyboard-response","42","245329","0.0-33.0-0.0","null","<p></p>","null","","","","","","","","","","","","","","","","","","",""
"","do_trial","43","250805","0.0-33.0-1.0","968","","","","50","0,1,0","","","","","","","","","","","","","","","",""
"","html-keyboard-response","44","251809","0.0-34.0-0.0","null","<p></p>","null","","","","","","","","","","","","","","","","","","",""
"","do_trial","45","256945","0.0-34.0-1.0","622.1000000238419","","","","51","1,0,0","","","","","","","","","","","","","","","",""
"","do_bye","46","258455","0.0-35.0-0.0","null","","","","null","","","","","","","","","","","","","","","","",""
"","do_travel","47","264460","0.0-35.0-1.0","null","","","","null","","","","","","","","","","","","","","","","",""
"","do_welcome","48","265968","0.0-35.0-2.0","null","","","","null","","","","","","","","","","","","","","","","",""
"","do_trial","49","272552","0.0-35.0-3.0","2072.900000035763","","","","49","1,0,0","","","","","","","","","","","","","","","",""
"","html-keyboard-response","50","273558","0.0-36.0-0.0","null","<p></p>","null","","","","","","","","","","","","","","","","","","",""
"","do_trial","51","278546","0.0-36.0-1.0","472.69999998807907","","","","49","1,0,1","","","","","","","","","","","","","","","",""
"","html-keyboard-response","52","279552","0.0-37.0-0.0","null","<p></p>","null","","","","","","","","","","","","","","","","","","",""
"","do_trial","53","284641","0.0-37.0-1.0","577.8000000119209","","","","50","1,1,0","","","","","","","","","","","","","","","",""
"","html-keyboard-response","54","285648","0.0-38.0-0.0","null","<p></p>","null","","","","","","","","","","","","","","","","","","",""
"","do_trial","55","290723","0.0-38.0-1.0","566.5","","","","49","0,0,1","","","","","","","","","","","","","","","",""
"","html-keyboard-response","56","291729","0.0-39.0-0.0","null","<p></p>","null","","","","","","","","","","","","","","","","","","",""
"","do_trial","57","296646","0.0-39.0-1.0","403.9000000357628","","","","50","1,0,1","","","","","","","","","","","","","","","",""
"","html-keyboard-response","58","299497","0.0-40.0-0.0","2849.600000023842","<div class='center'><p><img src='run_exp/static/images/tutorial/prac_best_pirate.png'  height='500'></p></div>","49","","","","","","","","","","","","","","","","","","",""
"","html-keyboard-response","59","300866","0.0-41.0-0.0","1367.4000000357628","<div class='center'><p>That's correct! Red beard was the best.</p><p><b>[Press the space bar to continue]</b></p></div>","32","","","","","","","","","","","","","","","","","","",""
"","html-keyboard-response","60","302768","0.0-41.0-1.0","1901","<div class='center'><p><img src='run_exp/static/images/tutorial/prac_source.png'  height='500'></p></div>","50","","","","","","","","","","","","","","","","","","",""
"","html-keyboard-response","61","304206","0.0-42.0-0.0","1437.1000000238419","<div class='center'><p>That's correct! You saw this ship on the cavern island.</p><p><b>[Press the space bar to continue]</b></p></div>","32","","","","","","","","","","","","","","","","","","",""
"","html-keyboard-response","62","515622","0.0-42.0-1.0","211414.5","<div class='center'><p>Good job on the practice game! Now, you will be asked you some true or false questions to make sure you really understand the rules of the game.</p><p> Press <b>'1'</b> on the keyboard for true and press <b>'2'</b> for false.</p><p><b>[Press the space bar to begin the quiz]</b></p></div>","32","","","","","","","","","","","","","","","","","","",""
"","html-keyboard-response","63","517747","0.0-42.0-2.0","2124","<div class='center'><p>You win bonus money by making choices as fast as possible.</p><p>Press 1 for true and press  2 for false.</p></div>","50","","","","","","","","","","","","","","","","","","",""
"","html-keyboard-response","64","518826","0.0-43.0-0.0","1077.8999999761581","<div class='center'><p>That's correct!</p> <p><b>[press the space bar to continue with the quiz]</b></p></div>","32","","","","","","","","","","","","","","","","","","",""
"","html-keyboard-response","65","522229","0.0-43.0-1.0","3402.099999964237","<div class='center'><p>You press the <b>‘3’</b> button on the keyboard to choose the red bearded pirate. </p><p>Press 1 for true and press  2 for false.</p></div>","50","","","","","","","","","","","","","","","","","","",""
"","html-keyboard-response","66","523560","0.0-44.0-0.0","1330.5999999642372","<div class='center'><p>That's correct!</p> <p><b>[press the space bar to continue with the quiz]</b></p></div>","32","","","","","","","","","","","","","","","","","","",""
"","html-keyboard-response","67","525702","0.0-44.0-1.0","2140.900000035763","<div class='center'><p>The pirate who is the best at robbing ships on the first island will be the best on every other island.</p><p>Press 1 for true and press  2 for false.</p></div>","50","","","","","","","","","","","","","","","","","","",""
"","html-keyboard-response","68","526164","0.0-45.0-0.0","461","<div class='center'><p>That's correct!</p> <p><b>[press the space bar to continue with the quiz]</b></p></div>","32","","","","","","","","","","","","","","","","","","",""
"","html-keyboard-response","69","529331","0.0-45.0-1.0","3166.099999964237","<div class='center'><p>You should remember the island where a pirate robbed a ship.</p><p>Press 1 for true and press  2 for false.</p></div>","49","","","","","","","","","","","","","","","","","","",""
"","html-keyboard-response","70","530072","0.0-46.0-0.0","729","<div class='center'><p>That's correct!</p> <p><b>[press the space bar to continue with the quiz]</b></p></div>","32","","","","","","","","","","","","","","","","","","",""
"","html-keyboard-response","71","543839","0.0-47.0-0.0","13766.399999976158","<div class='center'><p>Good job! You’re now ready to move on to the real game!</p> <p><br>[press the space bar to begin!]</br></p></div>","32","","","","","","","","","","","","","","","","","","",""
"","do_welcome","72","545348","0.0-48.0-0.0","null","","","","null","","","","","","","","","","","","","","","","",""
"","do_trial","73","550866","0.0-49.0-0.0","965.8000000119209","","","","49","0,0,0","0","coast","0","probe-59","0.6","0.3","0.1","0","","","","","","","",""
"","html-keyboard-response","74","551870","0.0-49.0-1.0","null","<p></p>","null","","","","","","","","","","","","","","","","","","",""
"","do_trial","75","556831","0.0-50.0-0.0","423.19999998807907","","","","50","1,0,0","0","coast","1","probe-209","0.5656590079680707","0.3505937660017925","0.14974987004105603","0","","","","","","","",""
"","html-keyboard-response","76","557838","0.0-50.0-1.0","null","<p></p>","null","","","","","","","","","","","","","","","","","","",""
"","do_trial","77","562802","0.0-51.0-0.0","411.4000000357628","","","","51","1,0,0","0","coast","2","probe-115","0.6382394927823091","0.41917737046465603","0.11594921588432895","0","","","","","","","",""
"","html-keyboard-response","78","563806","0.0-51.0-1.0","null","<p></p>","null","","","","","","","","","","","","","","","","","","",""
"","do_trial","79","568776","0.0-52.0-0.0","416.5999999642372","","","","49","0,0,0","0","coast","3","probe-103","0.6810903125812116","0.30079590458894895","0.19432355049527517","0","","","","","","","",""
"","html-keyboard-response","80","569782","0.0-52.0-1.0","null","<p></p>","null","","","","","","","","","","","","","","","","","","",""
"","do_trial","81","574715","0.0-53.0-0.0","378.5999999642372","","","","50","1,0,0","0","coast","4","probe-158","0.618663878680374","0.34103163665628683","0.12989880594659275","0","","","","","","","",""
"","html-keyboard-response","82","575719","0.0-53.0-1.0","null","<p></p>","null","","","","","","","","","","","","","","","","","","",""
"","do_trial","83","580623","0.0-54.0-0.0","354.5","","","","49","0,0,0","0","coast","5","probe-145","0.3784930105696653","0.34888521229775665","0.13171020684334664","0","","","","","","","",""
"","html-keyboard-response","84","581629","0.0-54.0-1.0","null","<p></p>","null","","","","","","","","","","","","","","","","","","",""
"","do_trial","85","586476","0.0-55.0-0.0","297.5999999642372","","","","51","0,0,0","0","coast","6","probe-106","0.43233619737599216","0.2610141218584755","0.060328415169628356","0","","","","","","","",""
"","html-keyboard-response","86","587482","0.0-55.0-1.0","null","<p></p>","null","","","","","","","","","","","","","","","","","","",""
"","do_trial","87","592646","0.0-56.0-0.0","612","","","","51","0,1,0","0","coast","7","probe-175","0.5237515546731125","0.2528293639934666","0.1599525402510579","0","","","","","","","",""
"","html-keyboard-response","88","593652","0.0-56.0-1.0","null","<p></p>","null","","","","","","","","","","","","","","","","","","",""
"","do_trial","89","598334","0.0-57.0-0.0","129.10000002384186","","","","50","1,1,0","0","coast","8","probe-29","0.6460628299944368","0.21637325986375516","0.09232394036382827","1","","","","","","","",""
"","html-keyboard-response","90","599336","0.0-57.0-1.0","null","<p></p>","null","","","","","","","","","","","","","","","","","","",""
"","do_trial","91","604468","0.0-58.0-0.0","585","","","","50","1,1,0","0","coast","9","probe-116","0.6613360965190933","0.29023827539755415","0.07548561678319697","1","","","","","","","",""
"","html-keyboard-response","92","605473","0.0-58.0-1.0","null","<p></p>","null","","","","","","","","","","","","","","","","","","",""
"","do_trial","93","610395","0.0-59.0-0.0","368.80000001192093","","","","50","0,1,0","0","coast","10","probe-76","0.5531273889012474","0.26550232167167476","0.10576580252521163","1","","","","","","","",""
"","html-keyboard-response","94","611400","0.0-59.0-1.0","null","<p></p>","null","","","","","","","","","","","","","","","","","","",""
"","do_trial","95","616348","0.0-60.0-0.0","395","","","","50","0,0,0","0","coast","11","probe-181","0.48519505960076154","0.24622779264550518","0.12745060587982635","0","","","","","","","",""
"","html-keyboard-response","96","617354","0.0-60.0-1.0","null","<p></p>","null","","","","","","","","","","","","","","","","","","",""
"","do_trial","97","622447","0.0-61.0-0.0","542.5","","","","49","0,0,0","0","coast","12","probe-102","0.4469086339915939","0.3450114998202311","0.2131586439135181","0","","","","","","","",""
"","html-keyboard-response","98","623454","0.0-61.0-1.0","null","<p></p>","null","","","","","","","","","","","","","","","","","","",""
"","do_trial","99","628295","0.0-62.0-0.0","291.80000001192093","","","","50","1,1,0","0","coast","13","probe-32","0.429964267316363","0.34819354149006154","0.17801890708242213","1","","","","","","","",""
"","html-keyboard-response","100","629302","0.0-62.0-1.0","null","<p></p>","null","","","","","","","","","","","","","","","","","","",""
"","do_trial","101","634214","0.0-63.0-0.0","359.89999997615814","","","","50","1,0,1","0","coast","14","probe-110","0.4537333355503277","0.3039867590686267","0.23174742835817852","0","","","","","","","",""
"","html-keyboard-response","102","635218","0.0-63.0-1.0","null","<p></p>","null","","","","","","","","","","","","","","","","","","",""
"","do_trial","103","640080","0.0-64.0-0.0","311.2000000476837","","","","50","0,0,0","0","coast","15","probe-18","0.5155711574222318","0.14457231730098236","0.14709030285492938","0","","","","","","","",""
"","html-keyboard-response","104","641081","0.0-64.0-1.0","null","<p></p>","null","","","","","","","","","","","","","","","","","","",""
"","do_trial","105","646146","0.0-65.0-0.0","514.3999999761581","","","","50","0,0,0","0","coast","16","probe-183","0.40818916078155343","0.1721086772629932","0.14920708606468117","0","","","","","","","",""
"","html-keyboard-response","106","647152","0.0-65.0-1.0","null","<p></p>","null","","","","","","","","","","","","","","","","","","",""
"","do_trial","107","652095","0.0-66.0-0.0","394.5","","","","50","0,0,0","0","coast","17","probe-153","0.423218660908813","0.07202840012031142","0.09408119459922096","0","","","","","","","",""
"","html-keyboard-response","108","653099","0.0-66.0-1.0","null","<p></p>","null","","","","","","","","","","","","","","","","","","",""
"","do_trial","109","658468","0.0-67.0-0.0","816.6000000238419","","","","50","1,0,0","0","coast","18","probe-128","0.47967700595568397","0.11182400241818535","0.09061632617278365","0","","","","","","","",""
"","html-keyboard-response","110","659474","0.0-67.0-1.0","null","<p></p>","null","","","","","","","","","","","","","","","","","","",""
"","do_trial","111","664568","0.0-68.0-0.0","544.9000000357628","","","","50","0,1,0","0","coast","19","probe-119","0.4644142042425372","0.4249384842909348","0.06053893786364789","1","","","","","","","",""
"","html-keyboard-response","112","665574","0.0-68.0-1.0","null","<p></p>","null","","","","","","","","","","","","","","","","","","",""
"","do_trial","113","670730","0.0-69.0-0.0","602.8000000119209","","","","50","1,1,1","0","coast","20","probe-20","0.5434522223520635","0.4173682031667149","0.10317713158719412","1","","","","","","","",""
"","html-keyboard-response","114","671736","0.0-69.0-1.0","null","<p></p>","null","","","","","","","","","","","","","","","","","","",""
"","do_trial","115","677581","0.0-70.0-0.0","1292","","","","50","1,0,0","0","coast","21","probe-149","0.6040459501585348","0.39154606583783774","0.0710290499269451","0","","","","","","","",""
"","html-keyboard-response","116","678587","0.0-70.0-1.0","null","<p></p>","null","","","","","","","","","","","","","","","","","","",""
"","do_trial","117","683436","0.0-71.0-0.0","299.69999998807907","","","","50","0,0,0","0","coast","22","probe-220","0.5555321130046584","0.4245573569206364","0.0654832431044105","0","","","","","","","",""
"","html-keyboard-response","118","684443","0.0-71.0-1.0","null","<p></p>","null","","","","","","","","","","","","","","","","","","",""
"","do_trial","119","689463","0.0-72.0-0.0","467.30000001192093","","","","50","1,1,0","0","coast","23","probe-58","0.6453472366302543","0.4929063658164521","0.11847655595604936","1","","","","","","","",""
"","html-keyboard-response","120","690467","0.0-72.0-1.0","null","<p></p>","null","","","","","","","","","","","","","","","","","","",""
"","do_trial","121","695845","0.0-73.0-0.0","825.3999999761581","","","","50","0,0,0","0","coast","24","probe-118","0.73543890155041","0.2843469166958402","0.21704751894117089","0","","","","","","","",""
"","html-keyboard-response","122","696847","0.0-73.0-1.0","null","<p></p>","null","","","","","","","","","","","","","","","","","","",""
"","do_trial","123","701720","0.0-74.0-0.0","321.10000002384186","","","","50","1,1,0","0","coast","25","probe-205","0.7103660208369378","0.3275913936963306","0.08161975772092321","1","","","","","","","",""
"","html-keyboard-response","124","702727","0.0-74.0-1.0","null","<p></p>","null","","","","","","","","","","","","","","","","","","",""
"","do_trial","125","707952","0.0-75.0-0.0","676.5999999642372","","","","50","0,0,0","0","coast","26","probe-124","0.6836655900568132","0.3565853361913946","0.13032729454556422","0","","","","","","","",""
"","html-keyboard-response","126","708956","0.0-75.0-1.0","null","<p></p>","null","","","","","","","","","","","","","","","","","","",""
"","do_trial","127","714235","0.0-76.0-0.0","730.3999999761581","","","","50","1,0,0","0","coast","27","probe-180","0.7658378627057469","0.3619300137224222","0.11184169727731337","0","","","","","","","",""
"","html-keyboard-response","128","715237","0.0-76.0-1.0","null","<p></p>","null","","","","","","","","","","","","","","","","","","",""
"","do_trial","129","720067","0.0-77.0-0.0","277.10000002384186","","","","50","0,0,0","0","coast","28","probe-125","0.6932412068429226","0.1954583306720979","0.1341640798359581","0","","","","","","","",""
"","html-keyboard-response","130","721072","0.0-77.0-1.0","null","<p></p>","null","","","","","","","","","","","","","","","","","","",""
"","do_trial","131","726113","0.0-78.0-0.0","488.80000001192093","","","","49","0,0,1","0","coast","29","probe-21","0.8612356930171002","0.31036770743180664","0.18967577338760566","0","","","","","","","",""
"","html-keyboard-response","132","727120","0.0-78.0-1.0","null","<p></p>","null","","","","","","","","","","","","","","","","","","",""
"","do_bye","133","728626","0.0-79.0-0.0","null","","","","null","","","","","","","","","","","","","","","","",""
"","do_travel","134","734631","0.0-80.0-0.0","null","","","","null","","","","","","","","","","","","","","","","",""
"","do_welcome","135","736142","0.0-80.0-1.0","null","","","","null","","","","","","","","","","","","","","","","",""
"","do_trial","136","742126","0.0-81.0-0.0","1430.3999999761581","","","","49","1,1,0","1","city","30","probe-16","1","0.3111998018784384","0.13149991852866738","1","","","","","","","",""
"","html-keyboard-response","137","743132","0.0-81.0-1.0","null","<p></p>","null","","","","","","","","","","","","","","","","","","",""
"","do_trial","138","748784","0.0-82.0-0.0","1098.4000000357628","","","","50","1,0,0","1","city","31","probe-105","1","0.3893068376079672","0.19533704665657745","0","","","","","","","",""
"","html-keyboard-response","139","749789","0.0-82.0-1.0","null","<p></p>","null","","","","","","","","","","","","","","","","","","",""
"","do_trial","140","755102","0.0-83.0-0.0","763.0999999642372","","","","51","1,0,1","1","city","32","probe-13","1","0.4806720030903449","0.20179036269160158","1","","","","","","","",""
"","html-keyboard-response","141","756108","0.0-83.0-1.0","null","<p></p>","null","","","","","","","","","","","","","","","","","","",""
"","do_trial","142","761112","0.0-84.0-0.0","451.60000002384186","","","","49","1,0,0","1","city","33","probe-96","0.7843313351276856","0.35060479240831527","0.3926564022223113","1","","","","","","","",""
"","html-keyboard-response","143","762114","0.0-84.0-1.0","null","<p></p>","null","","","","","","","","","","","","","","","","","","",""
"","do_trial","144","767128","0.0-85.0-0.0","461","","","","51","1,1,1","1","city","34","probe-104","0.606968712574006","0.3676868152858719","0.34631099951620153","1","","","","","","","",""
"","html-keyboard-response","145","768133","0.0-85.0-1.0","null","<p></p>","null","","","","","","","","","","","","","","","","","","",""
"","do_trial","146","773097","0.0-86.0-0.0","414","","","","51","1,1,0","1","city","35","probe-67","0.6607844306639576","0.31689660724356633","0.20785605429302131","0","","","","","","","",""
"","html-keyboard-response","147","774101","0.0-86.0-1.0","null","<p></p>","null","","","","","","","","","","","","","","","","","","",""
"","do_trial","148","779073","0.0-87.0-0.0","420.5","","","","49","1,1,1","1","city","36","probe-169","0.6350622821894423","0.35136603639457487","0.20353808066611642","1","","","","","","","",""
"","html-keyboard-response","149","780078","0.0-87.0-1.0","null","<p></p>","null","","","","","","","","","","","","","","","","","","",""
"","do_trial","150","785147","0.0-88.0-0.0","517.3999999761581","","","","49","0,0,0","1","city","37","probe-132","0.5514145517976661","0.4980922785175034","0.17896795135940438","0","","","","","","","",""
"","html-keyboard-response","151","786150","0.0-88.0-1.0","null","<p></p>","null","","","","","","","","","","","","","","","","","","",""
"","do_trial","152","791049","0.0-89.0-0.0","350.60000002384186","","","","49","0,0,0","1","city","38","probe-224","0.6407456811057523","0.33435211436472856","0.15004812011546542","0","","","","","","","",""
"","html-keyboard-response","153","792054","0.0-89.0-1.0","null","<p></p>","null","","","","","","","","","","","","","","","","","","",""
"","do_trial","154","796926","0.0-90.0-0.0","319.30000001192093","","","","51","1,1,0","1","city","39","probe-39","0.6320003877531453","0.27607409676579975","0.09828874932538474","0","","","","","","","",""
"","html-keyboard-response","155","797931","0.0-90.0-1.0","null","<p></p>","null","","","","","","","","","","","","","","","","","","",""
"","do_trial","156","802926","0.0-91.0-0.0","441.5999999642372","","","","50","1,0,0","1","city","40","probe-198","0.49244035066818875","0.1945239591020485","0.1375423123788825","0","","","","","","","",""
"","html-keyboard-response","157","803932","0.0-91.0-1.0","null","<p></p>","null","","","","","","","","","","","","","","","","","","",""
"","do_trial","158","808872","0.0-92.0-0.0","386.69999998807907","","","","49","0,0,1","1","city","41","probe-22","0.5553219886172854","0.29040705369436487","0.20049210875984766","0","","","","","","","",""
"","html-keyboard-response","159","809878","0.0-92.0-1.0","null","<p></p>","null","","","","","","","","","","","","","","","","","","",""
"","do_trial","160","815073","0.0-93.0-0.0","641.6999999880791","","","","49","0,0,1","1","city","42","probe-126","0.27024961424133404","0.21297569232905475","0.4314879745092011","0","","","","","","","",""
"","html-keyboard-response","161","816080","0.0-93.0-1.0","null","<p></p>","null","","","","","","","","","","","","","","","","","","",""
"","do_trial","162","821502","0.0-94.0-0.0","873.0999999642372","","","","49","1,1,0","1","city","43","probe-81","0.2945170041922552","0.21358436288760743","0.5675434410143987","1","","","","","","","",""
"","html-keyboard-response","163","822506","0.0-94.0-1.0","null","<p></p>","null","","","","","","","","","","","","","","","","","","",""
"","do_trial","164","827726","0.0-95.0-0.0","671.4000000357628","","","","49","0,1,1","1","city","44","probe-06","0.24809552066622295","0.20718921990376232","0.6055702771113903","0","","","","","","","",""
"","html-keyboard-response","165","828728","0.0-95.0-1.0","null","<p></p>","null","","","","","","","","","","","","","","","","","","",""
"","do_trial","166","834647","0.0-96.0-0.0","1367.7999999523163","","","","49","0,0,1","1","city","45","probe-229","0.14061051401619007","0.3154789474459309","0.6814217352637763","0","","","","","","","",""
"","html-keyboard-response","167","835653","0.0-96.0-1.0","null","<p></p>","null","","","","","","","","","","","","","","","","","","",""
"","do_trial","168","840818","0.0-97.0-0.0","609.5999999642372","","","","49","0,0,1","1","city","46","probe-24","0.13254233331193283","0.30425418310604896","0.41171093010064624","0","","","","","","","",""
"","html-keyboard-response","169","841824","0.0-97.0-1.0","null","<p></p>","null","","","","","","","","","","","","","","","","","","",""
"","do_trial","170","846885","0.0-98.0-0.0","510","","","","49","0,0,0","1","city","47","probe-155","0.3019973813700383","0.308754247515628","0.42109223929250517","0","","","","","","","",""
"","html-keyboard-response","171","847891","0.0-98.0-1.0","null","<p></p>","null","","","","","","","","","","","","","","","","","","",""
"","do_trial","172","852982","0.0-99.0-0.0","538.1000000238419","","","","51","1,0,1","1","city","48","probe-25","0.18860726580947848","0.30870477047958683","0.4244573685359088","1","","","","","","","",""
"","html-keyboard-response","173","853988","0.0-99.0-1.0","null","<p></p>","null","","","","","","","","","","","","","","","","","","",""
"","do_trial","174","859622","0.0-100.0-0.0","1081","","","","51","0,0,0","1","city","49","probe-30","0.18576736939764268","0.2631346770226302","0.5225782821165976","0","","","","","","","",""
"","html-keyboard-response","175","860629","0.0-100.0-1.0","null","<p></p>","null","","","","","","","","","","","","","","","","","","",""
"","do_trial","176","865926","0.0-101.0-0.0","747.8000000119209","","","","49","0,0,1","1","city","50","probe-216","0.07873873174175018","0.3171733363111701","0.6301865572811436","0","","","","","","","",""
"","html-keyboard-response","177","866932","0.0-101.0-1.0","null","<p></p>","null","","","","","","","","","","","","","","","","","","",""
"","do_trial","178","872186","0.0-102.0-0.0","695.6000000238419","","","","49","0,0,0","1","city","51","probe-226","0.1590052999358073","0.2521589906111129","0.5351267267877198","0","","","","","","","",""
"","html-keyboard-response","179","873191","0.0-102.0-1.0","null","<p></p>","null","","","","","","","","","","","","","","","","","","",""
"","do_trial","180","878486","0.0-103.0-0.0","742.6000000238419","","","","49","0,0,0","1","city","52","probe-55","0.12258141526331746","0.2828099505711311","0.53891757881045","0","","","","","","","",""
"","html-keyboard-response","181","879490","0.0-103.0-1.0","null","<p></p>","null","","","","","","","","","","","","","","","","","","",""
"","do_trial","182","884522","0.0-104.0-0.0","475","","","","49","0,1,0","1","city","53","probe-157","0.05361659393068313","0.24464657526626174","0.5319105239483651","0","","","","","","","",""
"","html-keyboard-response","183","885528","0.0-104.0-1.0","null","<p></p>","null","","","","","","","","","","","","","","","","","","",""
"","do_trial","184","890745","0.0-105.0-0.0","663.6000000238419","","","","51","0,0,1","1","city","54","probe-121","0.051714495795183446","0.23462174703042687","0.5494955568364527","1","","","","","","","",""
"","html-keyboard-response","185","891751","0.0-105.0-1.0","null","<p></p>","null","","","","","","","","","","","","","","","","","","",""
"","do_trial","186","897195","0.0-106.0-0.0","891.4000000357628","","","","51","0,0,0","1","city","55","probe-38","0.1735051228824355","0.19642756719675394","0.4372491893251107","0","","","","","","","",""
"","html-keyboard-response","187","898202","0.0-106.0-1.0","null","<p></p>","null","","","","","","","","","","","","","","","","","","",""
"","do_trial","188","903137","0.0-107.0-0.0","382.30000001192093","","","","49","0,1,0","1","city","56","probe-68","0.1933513733070327","0.27909141964694484","0.5664602898773415","0","","","","","","","",""
"","html-keyboard-response","189","904142","0.0-107.0-1.0","null","<p></p>","null","","","","","","","","","","","","","","","","","","",""
"","do_trial","190","909071","0.0-108.0-0.0","375.69999998807907","","","","49","0,0,1","1","city","57","probe-01","0.09834315459048615","0.425743199391181","0.5747726090153583","0","","","","","","","",""
"","html-keyboard-response","191","910077","0.0-108.0-1.0","null","<p></p>","null","","","","","","","","","","","","","","","","","","",""
"","do_trial","192","915191","0.0-109.0-0.0","560.5","","","","49","0,1,1","1","city","58","probe-27","0.05815134625901775","0.49900817397977315","0.722401180708478","0","","","","","","","",""
"","html-keyboard-response","193","916195","0.0-109.0-1.0","null","<p></p>","null","","","","","","","","","","","","","","","","","","",""
"","do_trial","194","921461","0.0-110.0-0.0","713.6000000238419","","","","51","0,1,1","1","city","59","probe-113","0.11595485363645162","0.5250835446635085","0.656187153194569","1","","","","","","","",""
"","html-keyboard-response","195","922464","0.0-110.0-1.0","null","<p></p>","null","","","","","","","","","","","","","","","","","","",""
"","do_trial","196","927315","0.0-111.0-0.0","298.9000000357628","","","","51","0,0,0","1","city","60","probe-74","0.07844901198783406","0.33995711454960287","0.7681922989493133","0","","","","","","","",""
"","html-keyboard-response","197","928320","0.0-111.0-1.0","null","<p></p>","null","","","","","","","","","","","","","","","","","","",""
"","do_trial","198","933549","0.0-112.0-0.0","676.8000000119209","","","","51","0,0,0","1","city","61","probe-41","0.06914476635766727","0.31465909003285336","0.7702622379517656","0","","","","","","","",""
"","html-keyboard-response","199","934554","0.0-112.0-1.0","null","<p></p>","null","","","","","","","","","","","","","","","","","","",""
"","do_trial","200","939820","0.0-113.0-0.0","716.8999999761581","","","","49","0,0,0","1","city","62","probe-185","0.1247913353683651","0.29487232024772375","0.7295656980592681","0","","","","","","","",""
"","html-keyboard-response","201","940826","0.0-113.0-1.0","null","<p></p>","null","","","","","","","","","","","","","","","","","","",""
"","do_trial","202","946112","0.0-114.0-0.0","737.5","","","","49","1,0,0","1","city","63","probe-165","0.2364914195572159","0.325594571374307","0.6300232696744172","1","","","","","","","",""
"","html-keyboard-response","203","947116","0.0-114.0-1.0","null","<p></p>","null","","","","","","","","","","","","","","","","","","",""
"","do_trial","204","952576","0.0-115.0-0.0","910.7999999523163","","","","49","0,0,1","1","city","64","probe-210","0.24468207349716115","0.353928847744135","0.5784072108865163","0","","","","","","","",""
"","html-keyboard-response","205","953582","0.0-115.0-1.0","null","<p></p>","null","","","","","","","","","","","","","","","","","","",""
"","do_trial","206","959033","0.0-116.0-0.0","898.8999999761581","","","","51","0,0,1","1","city","65","probe-07","0.35269037894261296","0.30245381857562154","0.7305179202797176","1","","","","","","","",""
"","html-keyboard-response","207","960035","0.0-116.0-1.0","null","<p></p>","null","","","","","","","","","","","","","","","","","","",""
"","do_trial","208","965199","0.0-117.0-0.0","612","","","","49","1,0,0","1","city","66","probe-223","0.3555509468266853","0.3761174136152039","0.7167062774305282","1","","","","","","","",""
"","html-keyboard-response","209","966205","0.0-117.0-1.0","null","<p></p>","null","","","","","","","","","","","","","","","","","","",""
"","do_trial","210","972370","0.0-118.0-0.0","1612.199999988079","","","","51","0,1,1","1","city","67","probe-211","0.28987306035684385","0.48213599023603715","0.6668121736019923","1","","","","","","","",""
"","html-keyboard-response","211","973376","0.0-118.0-1.0","null","<p></p>","null","","","","","","","","","","","","","","","","","","",""
"","do_trial","212","978347","0.0-119.0-0.0","419.19999998807907","","","","49","0,0,0","1","city","68","probe-89","0.10357441070352401","0.2937501605013317","0.7176147406818315","0","","","","","","","",""
"","html-keyboard-response","213","979352","0.0-119.0-1.0","null","<p></p>","null","","","","","","","","","","","","","","","","","","",""
"","do_trial","214","984444","0.0-120.0-0.0","539","","","","50","0,0,1","1","city","69","probe-203","0.09281857158735024","0.25205797883486836","0.52799932447677","0","","","","","","","",""
"","html-keyboard-response","215","985448","0.0-120.0-1.0","null","<p></p>","null","","","","","","","","","","","","","","","","","","",""
"","do_bye","216","986956","0.0-121.0-0.0","null","","","","null","","","","","","","","","","","","","","","","",""
"","do_travel","217","992962","0.0-122.0-0.0","null","","","","null","","","","","","","","","","","","","","","","",""
"","do_welcome","218","994473","0.0-122.0-1.0","null","","","","null","","","","","","","","","","","","","","","","",""
"","do_trial","219","999723","0.0-123.0-0.0","701.1999999880791","","","","49","1,1,1","2","countryside","70","probe-10","0.07966886629702123","0.3898247301846853","1","1","","","","","","","",""
"","html-keyboard-response","220","1000729","0.0-123.0-1.0","null","<p></p>","null","","","","","","","","","","","","","","","","","","",""
"","do_trial","221","1005889","0.0-124.0-0.0","609.1000000238419","","","","49","0,0,1","2","countryside","71","probe-201","0.0680860791355767","0.38069318294269394","1","0","","","","","","","",""
"","html-keyboard-response","222","1006895","0.0-124.0-1.0","null","<p></p>","null","","","","","","","","","","","","","","","","","","",""
"","do_trial","223","1011782","0.0-125.0-0.0","333.5","","","","50","0,0,1","2","countryside","72","probe-11","0.10269993559385235","0.2025823447127737","0.7630963089686383","0","","","","","","","",""
"","html-keyboard-response","224","1012788","0.0-125.0-1.0","null","<p></p>","null","","","","","","","","","","","","","","","","","","",""
"","do_trial","225","1017707","0.0-126.0-0.0","366.5999999642372","","","","51","0,0,1","2","countryside","73","probe-44","0.11576324289751735","0.26929653662166964","0.6588027951664358","1","","","","","","","",""
"","html-keyboard-response","226","1018712","0.0-126.0-1.0","null","<p></p>","null","","","","","","","","","","","","","","","","","","",""
"","do_trial","227","1023970","0.0-127.0-0.0","704.8000000119209","","","","51","0,0,1","2","countryside","74","probe-46","0.07456351880619762","0.3164162955345546","0.6029567639706551","1","","","","","","","",""
"","html-keyboard-response","228","1024976","0.0-127.0-1.0","null","<p></p>","null","","","","","","","","","","","","","","","","","","",""
"","do_trial","229","1029911","0.0-128.0-0.0","384.0999999642372","","","","51","0,0,1","2","countryside","75","probe-213","0.18224057634295027","0.31618374014719186","0.6743723474085387","1","","","","","","","",""
"","html-keyboard-response","230","1030912","0.0-128.0-1.0","null","<p></p>","null","","","","","","","","","","","","","","","","","","",""
"","do_trial","231","1036050","0.0-129.0-0.0","588.6999999880791","","","","51","0,0,1","2","countryside","76","probe-28","0.11786115899889993","0.4237257145706478","0.6177802922527127","1","","","","","","","",""
"","html-keyboard-response","232","1037056","0.0-129.0-1.0","null","<p></p>","null","","","","","","","","","","","","","","","","","","",""
"","do_trial","233","1042510","0.0-130.0-0.0","901.5","","","","51","1,0,0","2","countryside","77","probe-37","0.17709047233005176","0.4123789761960917","0.6501599300118269","0","","","","","","","",""
"","html-keyboard-response","234","1043516","0.0-130.0-1.0","null","<p></p>","null","","","","","","","","","","","","","","","","","","",""
"","do_trial","235","1048503","0.0-131.0-0.0","433.5","","","","51","0,1,0","2","countryside","78","probe-15","0.15250451444327415","0.2984873826283935","0.585086462420969","0","","","","","","","",""
"","html-keyboard-response","236","1049509","0.0-131.0-1.0","null","<p></p>","null","","","","","","","","","","","","","","","","","","",""
"","do_trial","237","1054359","0.0-132.0-0.0","297.5999999642372","","","","49","0,0,1","2","countryside","79","probe-73","0.17345729499338242","0.1753050097078868","0.6703525665727859","0","","","","","","","",""
"","html-keyboard-response","238","1055366","0.0-132.0-1.0","null","<p></p>","null","","","","","","","","","","","","","","","","","","",""
"","do_trial","239","1060532","0.0-133.0-0.0","617.6999999880791","","","","49","0,1,1","2","countryside","80","probe-36","0.06880431650973293","0.285857926470738","0.5114846999460398","0","","","","","","","",""
"","html-keyboard-response","240","1061538","0.0-133.0-1.0","null","<p></p>","null","","","","","","","","","","","","","","","","","","",""
"","do_trial","241","1066772","0.0-134.0-0.0","684.6000000238419","","","","50","0,0,1","2","countryside","81","probe-182","0.16114563409666477","0.2646466348922246","0.5748538788876193","0","","","","","","","",""
"","html-keyboard-response","242","1067778","0.0-134.0-1.0","null","<p></p>","null","","","","","","","","","","","","","","","","","","",""
"","do_trial","243","1072693","0.0-135.0-0.0","361.0999999642372","","","","51","1,0,1","2","countryside","82","probe-172","0.32974298743509706","0.40296580906785723","0.2605307911212967","1","","","","","","","",""
"","html-keyboard-response","244","1073696","0.0-135.0-1.0","null","<p></p>","null","","","","","","","","","","","","","","","","","","",""
"","do_trial","245","1078832","0.0-136.0-0.0","587.5999999642372","","","","51","0,1,0","2","countryside","83","probe-197","0.44723998962776657","0.3948643632762302","0.22895077373368422","0","","","","","","","",""
"","html-keyboard-response","246","1079837","0.0-136.0-1.0","null","<p></p>","null","","","","","","","","","","","","","","","","","","",""
"","do_trial","247","1084903","0.0-137.0-0.0","513.6000000238419","","","","51","0,0,0","2","countryside","84","probe-164","0.6057536670403302","0.27238083638752436","0.20551069049153498","0","","","","","","","",""
"","html-keyboard-response","248","1085907","0.0-137.0-1.0","null","<p></p>","null","","","","","","","","","","","","","","","","","","",""
"","do_trial","249","1091032","0.0-138.0-0.0","572.8999999761581","","","","51","1,0,1","2","countryside","85","probe-206","0.6841581910326312","0.19219162085277064","0.10533737497904155","1","","","","","","","",""
"","html-keyboard-response","250","1092038","0.0-138.0-1.0","null","<p></p>","null","","","","","","","","","","","","","","","","","","",""
"","do_trial","251","1097149","0.0-139.0-0.0","557.5","","","","51","1,0,1","2","countryside","86","probe-40","0.6766675516451758","0.17780935667695721","0.08474521481106377","1","","","","","","","",""
"","html-keyboard-response","252","1098155","0.0-139.0-1.0","null","<p></p>","null","","","","","","","","","","","","","","","","","","",""
"","do_trial","253","1103206","0.0-140.0-0.0","499.69999998807907","","","","51","1,0,0","2","countryside","87","probe-35","0.5714046984962599","0.24407647552117082","0.08371577057861503","0","","","","","","","",""
"","html-keyboard-response","254","1104213","0.0-140.0-1.0","null","<p></p>","null","","","","","","","","","","","","","","","","","","",""
"","do_trial","255","1109245","0.0-141.0-0.0","481","","","","51","0,0,0","2","countryside","88","probe-87","0.4433160891449204","0.23326837232679945","0.10418760325669638","0","","","","","","","",""
"","html-keyboard-response","256","1110250","0.0-141.0-1.0","null","<p></p>","null","","","","","","","","","","","","","","","","","","",""
"","do_trial","257","1115736","0.0-142.0-0.0","939.8999999761581","","","","51","1,1,0","2","countryside","89","probe-208","0.47066336522321656","0.15184424967439106","0.08505305416366336","0","","","","","","","",""
"","html-keyboard-response","258","1116743","0.0-142.0-1.0","null","<p></p>","null","","","","","","","","","","","","","","","","","","",""
"","do_trial","259","1121859","0.0-143.0-0.0","563.1999999880791","","","","49","0,1,0","2","countryside","90","probe-84","0.5184777168743497","0.19924478128317932","0.08962917407532617","0","","","","","","","",""
"","html-keyboard-response","260","1122865","0.0-143.0-1.0","null","<p></p>","null","","","","","","","","","","","","","","","","","","",""
"","do_trial","261","1127830","0.0-144.0-0.0","412","","","","50","0,0,0","2","countryside","91","probe-170","0.5774837919032152","0.3689557834151993","0.22076115142794922","0","","","","","","","",""
"","html-keyboard-response","262","1128836","0.0-144.0-1.0","null","<p></p>","null","","","","","","","","","","","","","","","","","","",""
"","do_trial","263","1134156","0.0-145.0-0.0","766.3999999761581","","","","51","1,1,0","2","countryside","92","probe-218","0.5191290665791077","0.42085265547530626","0.2277814641602","0","","","","","","","",""
"","html-keyboard-response","264","1135162","0.0-145.0-1.0","null","<p></p>","null","","","","","","","","","","","","","","","","","","",""
"","do_trial","265","1140364","0.0-146.0-0.0","648.9000000357628","","","","51","1,1,0","2","countryside","93","probe-184","0.5268653454440277","0.40551983908747735","0.20262236317596696","0","","","","","","","",""
"","html-keyboard-response","266","1141369","0.0-146.0-1.0","null","<p></p>","null","","","","","","","","","","","","","","","","","","",""
"","do_trial","267","1146279","0.0-147.0-0.0","357.69999998807907","","","","51","0,1,1","2","countryside","94","probe-154","0.5541473493796891","0.3466204143495151","0.20230171180559733","1","","","","","","","",""
"","html-keyboard-response","268","1147283","0.0-147.0-1.0","null","<p></p>","null","","","","","","","","","","","","","","","","","","",""
"","do_trial","269","1152300","0.0-148.0-0.0","464.5999999642372","","","","51","1,0,0","2","countryside","95","probe-136","0.5888623110487524","0.2611560193795798","0.2807352611520079","0","","","","","","","",""
"","html-keyboard-response","270","1153303","0.0-148.0-1.0","null","<p></p>","null","","","","","","","","","","","","","","","","","","",""
"","do_trial","271","1158361","0.0-149.0-0.0","505.89999997615814","","","","51","0,0,0","2","countryside","96","probe-62","0.6005496410608976","0.19571657295790462","0.07156498077085491","0","","","","","","","",""
"","html-keyboard-response","272","1159367","0.0-149.0-1.0","null","<p></p>","null","","","","","","","","","","","","","","","","","","",""
"","do_trial","273","1164314","0.0-150.0-0.0","393.19999998807907","","","","51","1,0,0","2","countryside","97","probe-83","0.48485696912896176","0.17760755003664247","0.09995296170164181","0","","","","","","","",""
"","html-keyboard-response","274","1165320","0.0-150.0-1.0","null","<p></p>","null","","","","","","","","","","","","","","","","","","",""
"","do_trial","275","1170247","0.0-151.0-0.0","375.30000001192093","","","","51","1,1,0","2","countryside","98","probe-167","0.6857396675655117","0.1728914485756866","0.0563431647036541","0","","","","","","","",""
"","html-keyboard-response","276","1171253","0.0-151.0-1.0","null","<p></p>","null","","","","","","","","","","","","","","","","","","",""
"","do_trial","277","1176145","0.0-152.0-0.0","344.80000001192093","","","","51","0,0,0","2","countryside","99","probe-189","0.6704868245698878","0.24217994615853008","0.13155971269567304","0","","","","","","","",""
"","html-keyboard-response","278","1177151","0.0-152.0-1.0","null","<p></p>","null","","","","","","","","","","","","","","","","","","",""
"","do_trial","279","1182432","0.0-153.0-0.0","728.4000000357628","","","","51","0,0,0","2","countryside","100","probe-161","0.6731191882535482","0.18223788302952434","0.05650897822477966","0","","","","","","","",""
"","html-keyboard-response","280","1183438","0.0-153.0-1.0","null","<p></p>","null","","","","","","","","","","","","","","","","","","",""
"","do_trial","281","1188302","0.0-154.0-0.0","310.89999997615814","","","","49","1,0,0","2","countryside","101","probe-19","0.7412933166300374","0.22083417878210662","0.16037663868327515","1","","","","","","","",""
"","html-keyboard-response","282","1189307","0.0-154.0-1.0","null","<p></p>","null","","","","","","","","","","","","","","","","","","",""
"","do_trial","283","1194339","0.0-155.0-0.0","480.19999998807907","","","","49","0,0,0","2","countryside","102","probe-94","0.5947483289942188","0.35954533469452393","0.20750364627424397","0","","","","","","","",""
"","html-keyboard-response","284","1195345","0.0-155.0-1.0","null","<p></p>","null","","","","","","","","","","","","","","","","","","",""
"","do_trial","285","1200327","0.0-156.0-0.0","428.7000000476837","","","","49","0,0,1","2","countryside","103","probe-117","0.6717523857421577","0.23451279410249168","0.2377020104484733","0","","","","","","","",""
"","html-keyboard-response","286","1201332","0.0-156.0-1.0","null","<p></p>","null","","","","","","","","","","","","","","","","","","",""
"","do_trial","287","1206615","0.0-157.0-0.0","730.3999999761581","","","","49","1,1,0","2","countryside","104","probe-31","0.5176051826770406","0.18358484251076104","0.17270263178476558","1","","","","","","","",""
"","html-keyboard-response","288","1207621","0.0-157.0-1.0","null","<p></p>","null","","","","","","","","","","","","","","","","","","",""
"","do_trial","289","1212752","0.0-158.0-0.0","578.1000000238419","","","","49","0,0,0","2","countryside","105","probe-12","0.44021292879603","0.3080916420475937","0.1898320541744022","0","","","","","","","",""
"","html-keyboard-response","290","1213758","0.0-158.0-1.0","null","<p></p>","null","","","","","","","","","","","","","","","","","","",""
"","do_trial","291","1218856","0.0-159.0-0.0","545.1999999880791","","","","49","1,0,0","2","countryside","106","probe-156","0.3803760992376648","0.30473231615117813","0.161205974161707","1","","","","","","","",""
"","html-keyboard-response","292","1219861","0.0-159.0-1.0","null","<p></p>","null","","","","","","","","","","","","","","","","","","",""
"","do_trial","293","1224784","0.0-160.0-0.0","369.5","","","","49","0,0,0","2","countryside","107","probe-65","0.42051762552002614","0.33070490506766115","0.1585139239701309","0","","","","","","","",""
"","html-keyboard-response","294","1225790","0.0-160.0-1.0","null","<p></p>","null","","","","","","","","","","","","","","","","","","",""
"","do_trial","295","1230817","0.0-161.0-0.0","475.19999998807907","","","","51","0,0,1","2","countryside","108","probe-112","0.502150085818271","0.13951850779121108","0.19931743399014387","1","","","","","","","",""
"","html-keyboard-response","296","1231821","0.0-161.0-1.0","null","<p></p>","null","","","","","","","","","","","","","","","","","","",""
"","do_trial","297","1236838","0.0-162.0-0.0","467.10000002384186","","","","51","1,0,0","2","countryside","109","probe-63","0.5801525431263693","0.12896237454399523","0.229599987923884","0","","","","","","","",""
"","html-keyboard-response","298","1237844","0.0-162.0-1.0","null","<p></p>","null","","","","","","","","","","","","","","","","","","",""
"","do_bye","299","1239352","0.0-163.0-0.0","null","","","","null","","","","","","","","","","","","","","","","",""
"","do_travel","300","1245359","0.0-164.0-0.0","null","","","","null","","","","","","","","","","","","","","","","",""
"","do_welcome","301","1246870","0.0-164.0-1.0","null","","","","null","","","","","","","","","","","","","","","","",""
"","do_trial","302","1252355","0.0-165.0-0.0","935.6999999880791","","","","49","1,0,1","3","highway","110","probe-212","1","0.16147387915918354","0.2537330632058678","1","","","","","","","",""
"","html-keyboard-response","303","1253361","0.0-165.0-1.0","null","<p></p>","null","","","","","","","","","","","","","","","","","","",""
"","do_trial","304","1258753","0.0-166.0-0.0","849","","","","50","1,0,0","3","highway","111","probe-61","1","0.23692955184773204","0.23770900498066014","0","","","","","","","",""
"","html-keyboard-response","305","1259758","0.0-166.0-1.0","null","<p></p>","null","","","","","","","","","","","","","","","","","","",""
"","do_trial","306","1264664","0.0-167.0-0.0","355.10000002384186","","","","51","1,0,1","3","highway","112","probe-111","0.9223865777698668","0.33337170562793605","0.2987085108845169","1","","","","","","","",""
"","html-keyboard-response","307","1265670","0.0-167.0-1.0","null","<p></p>","null","","","","","","","","","","","","","","","","","","",""
"","do_trial","308","1270700","0.0-168.0-0.0","477.30000001192093","","","","49","1,0,0","3","highway","113","probe-99","0.6393584917211765","0.5032546678126001","0.27095477533626233","1","","","","","","","",""
"","html-keyboard-response","309","1271703","0.0-168.0-1.0","null","<p></p>","null","","","","","","","","","","","","","","","","","","",""
"","do_trial","310","1276740","0.0-169.0-0.0","483.5999999642372","","","","49","1,1,0","3","highway","114","probe-150","0.6450784218920365","0.35771469788309873","0.2584906014440626","1","","","","","","","",""
"","html-keyboard-response","311","1277746","0.0-169.0-1.0","null","<p></p>","null","","","","","","","","","","","","","","","","","","",""
"","do_trial","312","1282687","0.0-170.0-0.0","387.89999997615814","","","","49","1,0,0","3","highway","115","probe-05","0.6755621165630237","0.47259325599892293","0.20884976506256872","1","","","","","","","",""
"","html-keyboard-response","313","1283693","0.0-170.0-1.0","null","<p></p>","null","","","","","","","","","","","","","","","","","","",""
"","do_trial","314","1289018","0.0-171.0-0.0","774.1999999880791","","","","49","1,1,0","3","highway","116","probe-93","0.5830105789382026","0.3971807699254471","0.3304285976728829","1","","","","","","","",""
"","html-keyboard-response","315","1290024","0.0-171.0-1.0","null","<p></p>","null","","","","","","","","","","","","","","","","","","",""
"","do_trial","316","1295501","0.0-172.0-0.0","925.5999999642372","","","","49","0,1,1","3","highway","117","probe-100","0.5194061594815678","0.4441458781394579","0.33563003595372115","0","","","","","","","",""
"","html-keyboard-response","317","1296507","0.0-172.0-1.0","null","<p></p>","null","","","","","","","","","","","","","","","","","","",""
"","do_trial","318","1302183","0.0-173.0-0.0","1128.7999999523163","","","","49","0,0,0","3","highway","118","probe-09","0.4801844769826142","0.32720459530447954","0.20354685636859557","0","","","","","","","",""
"","html-keyboard-response","319","1303186","0.0-173.0-1.0","null","<p></p>","null","","","","","","","","","","","","","","","","","","",""
"","do_trial","320","1308069","0.0-174.0-0.0","336.30000001192093","","","","51","1,0,1","3","highway","119","probe-56","0.5427566317508822","0.22499844879427297","0.09932455503065497","1","","","","","","","",""
"","html-keyboard-response","321","1309075","0.0-174.0-1.0","null","<p></p>","null","","","","","","","","","","","","","","","","","","",""
"","do_trial","322","1314198","0.0-175.0-0.0","570.5","","","","51","0,1,0","3","highway","120","probe-166","0.4312394282476186","0.2606648567043411","0.11963222533146381","0","","","","","","","",""
"","html-keyboard-response","323","1315200","0.0-175.0-1.0","null","<p></p>","null","","","","","","","","","","","","","","","","","","",""
"","do_trial","324","1320197","0.0-176.0-0.0","446.0999999642372","","","","51","0,0,0","3","highway","121","probe-49","0.4441836174603398","0.2329620061708319","0.13632607297397825","0","","","","","","","",""
"","html-keyboard-response","325","1321203","0.0-176.0-1.0","null","<p></p>","null","","","","","","","","","","","","","","","","","","",""
"","do_trial","326","1326133","0.0-177.0-0.0","381.69999998807907","","","","51","1,1,0","3","highway","122","probe-141","0.29891084586564687","0.42612605922321733","0.28073056120761003","0","","","","","","","",""
"","html-keyboard-response","327","1327138","0.0-177.0-1.0","null","<p></p>","null","","","","","","","","","","","","","","","","","","",""
"","do_trial","328","1332191","0.0-178.0-0.0","504.19999998807907","","","","51","0,1,0","3","highway","123","probe-60","0.3477206492349161","0.48438922187149197","0.24121814368895364","0","","","","","","","",""
"","html-keyboard-response","329","1333196","0.0-178.0-1.0","null","<p></p>","null","","","","","","","","","","","","","","","","","","",""
"","do_trial","330","1338167","0.0-179.0-0.0","417.5","","","","49","0,1,0","3","highway","124","probe-138","0.07754270150126331","0.4830338422748052","0.27709215770747947","0","","","","","","","",""
"","html-keyboard-response","331","1339172","0.0-179.0-1.0","null","<p></p>","null","","","","","","","","","","","","","","","","","","",""
"","do_trial","332","1344057","0.0-180.0-0.0","346.80000001192093","","","","50","0,1,0","3","highway","125","probe-186","0.06274789691911406","0.5590455711277782","0.3133649338213657","1","","","","","","","",""
"","html-keyboard-response","333","1345062","0.0-180.0-1.0","null","<p></p>","null","","","","","","","","","","","","","","","","","","",""
"","do_trial","334","1350311","0.0-181.0-0.0","700.5999999642372","","","","50","0,1,0","3","highway","126","probe-143","0.11036964043045881","0.5157796956374352","0.21212939914883447","1","","","","","","","",""
"","html-keyboard-response","335","1351317","0.0-181.0-1.0","null","<p></p>","null","","","","","","","","","","","","","","","","","","",""
"","do_trial","336","1356269","0.0-182.0-0.0","400.4000000357628","","","","50","1,1,1","3","highway","127","probe-194","0.15018041802303164","0.4518556780663565","0.29384063961654305","1","","","","","","","",""
"","html-keyboard-response","337","1357274","0.0-182.0-1.0","null","<p></p>","null","","","","","","","","","","","","","","","","","","",""
"","do_trial","338","1362180","0.0-183.0-0.0","353.19999998807907","","","","50","0,1,0","3","highway","128","probe-228","0.05090779639747438","0.42645669210856185","0.26808751706413525","1","","","","","","","",""
"","html-keyboard-response","339","1363187","0.0-183.0-1.0","null","<p></p>","null","","","","","","","","","","","","","","","","","","",""
"","do_trial","340","1368242","0.0-184.0-0.0","506.30000001192093","","","","50","0,0,0","3","highway","129","probe-192","0.052499387083625976","0.32905711278410155","0.28326107285981694","0","","","","","","","",""
"","html-keyboard-response","341","1369248","0.0-184.0-1.0","null","<p></p>","null","","","","","","","","","","","","","","","","","","",""
"","do_trial","342","1374099","0.0-185.0-0.0","299.30000001192093","","","","50","0,1,0","3","highway","130","probe-53","0.05824629215515431","0.39576663349681107","0.26503033538565424","1","","","","","","","",""
"","html-keyboard-response","343","1375101","0.0-185.0-1.0","null","<p></p>","null","","","","","","","","","","","","","","","","","","",""
"","do_trial","344","1380118","0.0-186.0-0.0","468.5","","","","50","1,1,1","3","highway","131","probe-137","0.11403581303644035","0.5217645989566094","0.6035552017838055","1","","","","","","","",""
"","html-keyboard-response","345","1381124","0.0-186.0-1.0","null","<p></p>","null","","","","","","","","","","","","","","","","","","",""
"","do_trial","346","1386009","0.0-187.0-0.0","332.5999999642372","","","","50","0,1,0","3","highway","132","probe-144","0.16541533473094536","0.5157473569581067","0.4931625861961905","1","","","","","","","",""
"","html-keyboard-response","347","1387015","0.0-187.0-1.0","null","<p></p>","null","","","","","","","","","","","","","","","","","","",""
"","do_trial","348","1391937","0.0-188.0-0.0","369.9000000357628","","","","50","0,0,0","3","highway","133","probe-127","0.19176807084377123","0.5385651087550781","0.30920426134155354","0","","","","","","","",""
"","html-keyboard-response","349","1392941","0.0-188.0-1.0","null","<p></p>","null","","","","","","","","","","","","","","","","","","",""
"","do_trial","350","1397863","0.0-189.0-0.0","369.5","","","","50","0,1,0","3","highway","134","probe-42","0.10739440165722412","0.6079730099806241","0.35238194874411594","1","","","","","","","",""
"","html-keyboard-response","351","1398869","0.0-189.0-1.0","null","<p></p>","null","","","","","","","","","","","","","","","","","","",""
"","do_trial","352","1403908","0.0-190.0-0.0","490.0999999642372","","","","50","0,0,1","3","highway","135","probe-200","0.16085335796091058","0.5784550029901078","0.41033044545450353","0","","","","","","","",""
"","html-keyboard-response","353","1404913","0.0-190.0-1.0","null","<p></p>","null","","","","","","","","","","","","","","","","","","",""
"","do_trial","354","1409863","0.0-191.0-0.0","396.89999997615814","","","","50","0,0,1","3","highway","136","probe-152","0.25418821117843515","0.4142210355755398","0.1985949202409085","0","","","","","","","",""
"","html-keyboard-response","355","1410868","0.0-191.0-1.0","null","<p></p>","null","","","","","","","","","","","","","","","","","","",""
"","do_trial","356","1416005","0.0-192.0-0.0","584.4000000357628","","","","50","0,0,0","3","highway","137","probe-92","0.13204166931887198","0.4054978077895873","0.2944341448012558","0","","","","","","","",""
"","html-keyboard-response","357","1417012","0.0-192.0-1.0","null","<p></p>","null","","","","","","","","","","","","","","","","","","",""
"","do_trial","358","1421869","0.0-193.0-0.0","304.69999998807907","","","","50","0,1,0","3","highway","138","probe-107","0.12881044786278056","0.5008106950576873","0.37374645165857645","1","","","","","","","",""
"","html-keyboard-response","359","1422874","0.0-193.0-1.0","null","<p></p>","null","","","","","","","","","","","","","","","","","","",""
"","do_trial","360","1427807","0.0-194.0-0.0","379.60000002384186","","","","50","0,1,0","3","highway","139","probe-109","0.13921321692465932","0.3980814180538621","0.3884076887682852","1","","","","","","","",""
"","html-keyboard-response","361","1428813","0.0-194.0-1.0","null","<p></p>","null","","","","","","","","","","","","","","","","","","",""
"","do_trial","362","1434270","0.0-195.0-0.0","907.8999999761581","","","","50","1,1,0","3","highway","140","probe-221","0.21538277468735215","0.46870199511739447","0.3372939834462711","1","","","","","","","",""
"","html-keyboard-response","363","1435276","0.0-195.0-1.0","null","<p></p>","null","","","","","","","","","","","","","","","","","","",""
"","do_trial","364","1440149","0.0-196.0-0.0","322.60000002384186","","","","50","0,0,1","3","highway","141","probe-214","0.17026960262885915","0.4710972781877073","0.3198817127259572","0","","","","","","","",""
"","html-keyboard-response","365","1441155","0.0-196.0-1.0","null","<p></p>","null","","","","","","","","","","","","","","","","","","",""
"","do_trial","366","1446094","0.0-197.0-0.0","382.19999998807907","","","","50","0,1,0","3","highway","142","probe-219","0.0959488849892619","0.5346940036106711","0.2952743524813838","1","","","","","","","",""
"","html-keyboard-response","367","1447099","0.0-197.0-1.0","null","<p></p>","null","","","","","","","","","","","","","","","","","","",""
"","do_trial","368","1452189","0.0-198.0-0.0","537.1000000238419","","","","50","0,1,0","3","highway","143","probe-151","0.2068510247485365","0.6814872961140688","0.21825892317043152","1","","","","","","","",""
"","html-keyboard-response","369","1453193","0.0-198.0-1.0","null","<p></p>","null","","","","","","","","","","","","","","","","","","",""
"","do_trial","370","1458141","0.0-199.0-0.0","394.19999998807907","","","","50","0,0,0","3","highway","144","probe-82","0.20439979300418984","0.7213465612007139","0.21737083546774633","0","","","","","","","",""
"","html-keyboard-response","371","1459144","0.0-199.0-1.0","null","<p></p>","null","","","","","","","","","","","","","","","","","","",""
"","do_trial","372","1464422","0.0-200.0-0.0","729","","","","50","0,1,0","3","highway","145","probe-173","0.08154107415430069","0.6142421273473542","0.134489976876252","1","","","","","","","",""
"","html-keyboard-response","373","1465427","0.0-200.0-1.0","null","<p></p>","null","","","","","","","","","","","","","","","","","","",""
"","do_trial","374","1470310","0.0-201.0-0.0","330.10000002384186","","","","50","0,1,0","3","highway","146","probe-140","0.0601281127959727","0.7556526692966246","0.17444173970671475","1","","","","","","","",""
"","html-keyboard-response","375","1471317","0.0-201.0-1.0","null","<p></p>","null","","","","","","","","","","","","","","","","","","",""
"","do_trial","376","1476214","0.0-202.0-0.0","344.9000000357628","","","","50","1,0,0","3","highway","147","probe-171","0.1250733863868535","0.5957311886637229","0.33177851630684785","0","","","","","","","",""
"","html-keyboard-response","377","1477220","0.0-202.0-1.0","null","<p></p>","null","","","","","","","","","","","","","","","","","","",""
"","do_trial","378","1482273","0.0-203.0-0.0","504.69999998807907","","","","50","0,0,0","3","highway","148","probe-193","0.06337870066647801","0.6011421038545538","0.4164399220320041","0","","","","","","","",""
"","html-keyboard-response","379","1483280","0.0-203.0-1.0","null","<p></p>","null","","","","","","","","","","","","","","","","","","",""
"","do_trial","380","1487949","0.0-204.0-0.0","115.69999998807907","","","","50","0,0,0","3","highway","149","probe-123","0.050177295186353624","0.520983283014236","0.30955206731375184","0","","","","","","","",""
"","html-keyboard-response","381","1488954","0.0-204.0-1.0","null","<p></p>","null","","","","","","","","","","","","","","","","","","",""
"","do_bye","382","1490462","0.0-205.0-0.0","null","","","","null","","","","","","","","","","","","","","","","",""
"","do_travel","383","1496467","0.0-206.0-0.0","null","","","","null","","","","","","","","","","","","","","","","",""
"","do_welcome","384","1497973","0.0-206.0-1.0","null","","","","null","","","","","","","","","","","","","","","","",""
"","do_trial","385","1503112","0.0-207.0-0.0","590.1999999880791","","","","49","0,1,0","4","mountain","150","probe-227","0.2629364824603995","1","0.1882439954654159","0","","","","","","","",""
"","html-keyboard-response","386","1504117","0.0-207.0-1.0","null","<p></p>","null","","","","","","","","","","","","","","","","","","",""
"","do_trial","387","1509187","0.0-208.0-0.0","517","","","","51","0,1,0","4","mountain","151","probe-17","0.2281204554117858","1","0.14452204979327177","0","","","","","","","",""
"","html-keyboard-response","388","1510189","0.0-208.0-1.0","null","<p></p>","null","","","","","","","","","","","","","","","","","","",""
"","do_trial","389","1515014","0.0-209.0-0.0","273.5","","","","50","0,1,0","4","mountain","152","probe-80","0.25601668533474875","0.8650434713226695","0.19705153405411058","1","","","","","","","",""
"","html-keyboard-response","390","1516016","0.0-209.0-1.0","null","<p></p>","null","","","","","","","","","","","","","","","","","","",""
"","do_trial","391","1521085","0.0-210.0-0.0","516.3999999761581","","","","50","1,1,1","4","mountain","153","probe-57","0.13149935532373852","0.7925262971720084","0.2378576501769967","1","","","","","","","",""
"","html-keyboard-response","392","1522091","0.0-210.0-1.0","null","<p></p>","null","","","","","","","","","","","","","","","","","","",""
"","do_trial","393","1527465","0.0-211.0-0.0","825.8999999761581","","","","50","0,1,0","4","mountain","154","probe-47","0.23344852646194825","0.5733689987575181","0.2095967863563687","1","","","","","","","",""
"","html-keyboard-response","394","1528471","0.0-211.0-1.0","null","<p></p>","null","","","","","","","","","","","","","","","","","","",""
"","do_trial","395","1533586","0.0-212.0-0.0","562.3999999761581","","","","50","0,0,0","4","mountain","155","probe-75","0.1242631247008077","0.5102162706321312","0.10448789476632156","0","","","","","","","",""
"","html-keyboard-response","396","1534593","0.0-212.0-1.0","null","<p></p>","null","","","","","","","","","","","","","","","","","","",""
"","do_trial","397","1539520","0.0-213.0-0.0","374.80000001192093","","","","50","0,1,0","4","mountain","156","probe-50","0.09433587286945921","0.41521019231526696","0.2064978403491274","1","","","","","","","",""
"","html-keyboard-response","398","1540525","0.0-213.0-1.0","null","<p></p>","null","","","","","","","","","","","","","","","","","","",""
"","do_trial","399","1545437","0.0-214.0-0.0","360.89999997615814","","","","50","1,0,0","4","mountain","157","probe-159","0.07272996144508156","0.48692838967669444","0.14027121067886061","0","","","","","","","",""
"","html-keyboard-response","400","1546441","0.0-214.0-1.0","null","<p></p>","null","","","","","","","","","","","","","","","","","","",""
"","do_trial","401","1551296","0.0-215.0-0.0","302.4000000357628","","","","50","0,0,0","4","mountain","158","probe-177","0.09848243207203297","0.5690988699307598","0.23588545678150585","0","","","","","","","",""
"","html-keyboard-response","402","1552302","0.0-215.0-1.0","null","<p></p>","null","","","","","","","","","","","","","","","","","","",""
"","do_trial","403","1557417","0.0-216.0-0.0","564.5","","","","50","0,1,1","4","mountain","159","probe-187","0.23012597511076888","0.5856718797312618","0.33480762973094985","1","","","","","","","",""
"","html-keyboard-response","404","1558423","0.0-216.0-1.0","null","<p></p>","null","","","","","","","","","","","","","","","","","","",""
"","do_trial","405","1563299","0.0-217.0-0.0","324.80000001192093","","","","50","0,1,0","4","mountain","160","probe-98","0.09282118265926709","0.4623507684797764","0.2490337630596378","1","","","","","","","",""
"","html-keyboard-response","406","1564304","0.0-217.0-1.0","null","<p></p>","null","","","","","","","","","","","","","","","","","","",""
"","do_trial","407","1569303","0.0-218.0-0.0","450.60000002384186","","","","50","0,0,0","4","mountain","161","probe-03","0.07613109763065308","0.4899258792282783","0.19566937970993553","0","","","","","","","",""
"","html-keyboard-response","408","1570308","0.0-218.0-1.0","null","<p></p>","null","","","","","","","","","","","","","","","","","","",""
"","do_trial","409","1575324","0.0-219.0-0.0","463.5","","","","50","1,1,0","4","mountain","162","probe-79","0.13524894846838537","0.5871567350265017","0.17612671127635182","1","","","","","","","",""
"","html-keyboard-response","410","1576331","0.0-219.0-1.0","null","<p></p>","null","","","","","","","","","","","","","","","","","","",""
"","do_trial","411","1581437","0.0-220.0-0.0","553.4000000357628","","","","50","0,1,0","4","mountain","163","probe-190","0.29034536971693564","0.47956218776835535","0.11517089219821207","1","","","","","","","",""
"","html-keyboard-response","412","1582443","0.0-220.0-1.0","null","<p></p>","null","","","","","","","","","","","","","","","","","","",""
"","do_trial","413","1587498","0.0-221.0-0.0","502.89999997615814","","","","50","1,0,0","4","mountain","164","probe-86","0.4164528148423554","0.352222556730716","0.08130978127078319","0","","","","","","","",""
"","html-keyboard-response","414","1588502","0.0-221.0-1.0","null","<p></p>","null","","","","","","","","","","","","","","","","","","",""
"","do_trial","415","1593444","0.0-222.0-0.0","389.2999999523163","","","","50","0,1,0","4","mountain","165","probe-114","0.5747981438477996","0.3848794158256875","0.10383504658486993","1","","","","","","","",""
"","html-keyboard-response","416","1594446","0.0-222.0-1.0","null","<p></p>","null","","","","","","","","","","","","","","","","","","",""
"","do_trial","417","1599356","0.0-223.0-0.0","361.80000001192093","","","","50","1,1,0","4","mountain","166","probe-52","0.6715243321875022","0.35568183537034","0.2077439058711125","1","","","","","","","",""
"","html-keyboard-response","418","1600363","0.0-223.0-1.0","null","<p></p>","null","","","","","","","","","","","","","","","","","","",""
"","do_trial","419","1605232","0.0-224.0-0.0","320.7000000476837","","","","50","1,1,0","4","mountain","167","probe-188","0.6570983567452432","0.25334606852971425","0.1353277540485815","1","","","","","","","",""
"","html-keyboard-response","420","1606238","0.0-224.0-1.0","null","<p></p>","null","","","","","","","","","","","","","","","","","","",""
"","do_trial","421","1611253","0.0-225.0-0.0","466.5","","","","50","1,0,1","4","mountain","168","probe-133","0.6677725507715434","0.19921234081053932","0.26472291910583934","0","","","","","","","",""
"","html-keyboard-response","422","1612259","0.0-225.0-1.0","null","<p></p>","null","","","","","","","","","","","","","","","","","","",""
"","do_trial","423","1617155","0.0-226.0-0.0","344.0999999642372","","","","50","0,0,0","4","mountain","169","probe-174","0.6326011114628719","0.09979604074786005","0.10634675392074104","0","","","","","","","",""
"","html-keyboard-response","424","1618161","0.0-226.0-1.0","null","<p></p>","null","","","","","","","","","","","","","","","","","","",""
"","do_trial","425","1623226","0.0-227.0-0.0","512.1999999880791","","","","50","0,1,0","4","mountain","170","probe-70","0.5712061349937965","0.1830011920674056","0.15381023623183201","1","","","","","","","",""
"","html-keyboard-response","426","1624230","0.0-227.0-1.0","null","<p></p>","null","","","","","","","","","","","","","","","","","","",""
"","do_trial","427","1629134","0.0-228.0-0.0","351.39999997615814","","","","50","1,0,0","4","mountain","171","probe-178","0.6945154565156894","0.35879547962017777","0.132526791775401","0","","","","","","","",""
"","html-keyboard-response","428","1630140","0.0-228.0-1.0","null","<p></p>","null","","","","","","","","","","","","","","","","","","",""
"","do_trial","429","1635277","0.0-229.0-0.0","587","","","","50","1,0,1","4","mountain","172","probe-78","0.5380936669559762","0.3865827715724772","0.24842624380289008","0","","","","","","","",""
"","html-keyboard-response","430","1636284","0.0-229.0-1.0","null","<p></p>","null","","","","","","","","","","","","","","","","","","",""
"","do_trial","431","1641492","0.0-230.0-0.0","660.2999999523163","","","","50","0,1,0","4","mountain","173","probe-230","0.48160754984634785","0.2481832102744923","0.205075894163178","1","","","","","","","",""
"","html-keyboard-response","432","1642498","0.0-230.0-1.0","null","<p></p>","null","","","","","","","","","","","","","","","","","","",""
"","do_trial","433","1647464","0.0-231.0-0.0","412.80000001192093","","","","50","1,0,0","4","mountain","174","probe-199","0.4030842500573498","0.30118115551524166","0.1726268821112816","0","","","","","","","",""
"","html-keyboard-response","434","1648470","0.0-231.0-1.0","null","<p></p>","null","","","","","","","","","","","","","","","","","","",""
"","do_trial","435","1653589","0.0-232.0-0.0","566.7999999523163","","","","50","1,1,0","4","mountain","175","probe-196","0.42756504386657346","0.3458934884267422","0.10399933447621097","1","","","","","","","",""
"","html-keyboard-response","436","1654595","0.0-232.0-1.0","null","<p></p>","null","","","","","","","","","","","","","","","","","","",""
"","do_trial","437","1659671","0.0-233.0-0.0","530.3000000119209","","","","50","0,0,0","4","mountain","176","probe-43","0.47759604350537843","0.4327534144483283","0.12879823789756462","0","","","","","","","",""
"","html-keyboard-response","438","1660677","0.0-233.0-1.0","null","<p></p>","null","","","","","","","","","","","","","","","","","","",""
"","do_trial","439","1665551","0.0-234.0-0.0","321.30000001192093","","","","50","0,1,0","4","mountain","177","probe-179","0.43543101357688796","0.40489097579653377","0.10767351670196088","1","","","","","","","",""
"","html-keyboard-response","440","1666557","0.0-234.0-1.0","null","<p></p>","null","","","","","","","","","","","","","","","","","","",""
"","do_trial","441","1671891","0.0-235.0-0.0","785.5","","","","50","0,1,0","4","mountain","178","probe-207","0.4696124554659298","0.4259269486963564","0.15882421436227181","1","","","","","","","",""
"","html-keyboard-response","442","1672895","0.0-235.0-1.0","null","<p></p>","null","","","","","","","","","","","","","","","","","","",""
"","do_trial","443","1678136","0.0-236.0-0.0","693.3000000119209","","","","50","0,1,0","4","mountain","179","probe-217","0.3826818700807841","0.21027604047537576","0.1408984383254547","1","","","","","","","",""
"","html-keyboard-response","444","1679138","0.0-236.0-1.0","null","<p></p>","null","","","","","","","","","","","","","","","","","","",""
"","do_trial","445","1685208","0.0-237.0-0.0","1523.5","","","","50","0,0,0","4","mountain","180","probe-34","0.5076251988691556","0.36610982557086047","0.16860113648669361","0","","","","","","","",""
"","html-keyboard-response","446","1686215","0.0-237.0-1.0","null","<p></p>","null","","","","","","","","","","","","","","","","","","",""
"","do_trial","447","1691170","0.0-238.0-0.0","403.80000001192093","","","","50","1,0,0","4","mountain","181","probe-101","0.5216623771641388","0.3014004004135439","0.07723745624977761","0","","","","","","","",""
"","html-keyboard-response","448","1692176","0.0-238.0-1.0","null","<p></p>","null","","","","","","","","","","","","","","","","","","",""
"","do_trial","449","1697460","0.0-239.0-0.0","731.5","","","","50","1,0,0","4","mountain","182","probe-45","0.45815060598289764","0.2161306855337567","0.11767392254969","0","","","","","","","",""
"","html-keyboard-response","450","1698466","0.0-239.0-1.0","null","<p></p>","null","","","","","","","","","","","","","","","","","","",""
"","do_trial","451","1703463","0.0-240.0-0.0","444.5","","","","50","0,0,0","4","mountain","183","probe-131","0.5344711702680828","0.285667392644267","0.0731804800728343","0","","","","","","","",""
"","html-keyboard-response","452","1704465","0.0-240.0-1.0","null","<p></p>","null","","","","","","","","","","","","","","","","","","",""
"","do_trial","453","1709802","0.0-241.0-0.0","787.6000000238419","","","","50","1,0,0","4","mountain","184","probe-26","0.5258994196935939","0.38080904371144597","0.09235357375446018","0","","","","","","","",""
"","html-keyboard-response","454","1710804","0.0-241.0-1.0","null","<p></p>","null","","","","","","","","","","","","","","","","","","",""
"","do_trial","455","1715926","0.0-242.0-0.0","572","","","","50","1,0,1","4","mountain","185","probe-147","0.5703466988696407","0.31414562991148326","0.11905388285498324","0","","","","","","","",""
"","html-keyboard-response","456","1716927","0.0-242.0-1.0","null","<p></p>","null","","","","","","","","","","","","","","","","","","",""
"","do_trial","457","1721654","0.0-243.0-0.0","174.60000002384186","","","","50","1,0,0","4","mountain","186","probe-142","0.6565612855501779","0.20162229512402918","0.15021738105354476","0","","","","","","","",""
"","html-keyboard-response","458","1722661","0.0-243.0-1.0","null","<p></p>","null","","","","","","","","","","","","","","","","","","",""
"","do_trial","459","1728259","0.0-244.0-0.0","1047.300000011921","","","","50","0,1,0","4","mountain","187","probe-85","0.7095370667260444","0.2320828799088046","0.17528315617854065","1","","","","","","","",""
"","html-keyboard-response","460","1729266","0.0-244.0-1.0","null","<p></p>","null","","","","","","","","","","","","","","","","","","",""
"","do_trial","461","1734387","0.0-245.0-0.0","569.1999999880791","","","","50","1,0,1","4","mountain","188","probe-130","0.6725487616416395","0.1492285502540915","0.20841902074395194","0","","","","","","","",""
"","html-keyboard-response","462","1735394","0.0-245.0-1.0","null","<p></p>","null","","","","","","","","","","","","","","","","","","",""
"","do_trial","463","1740518","0.0-246.0-0.0","571.3999999761581","","","","50","1,0,1","4","mountain","189","probe-08","0.5739363952486393","0.06209250823570974","0.1074642048108069","0","","","","","","","",""
"","html-keyboard-response","464","1741523","0.0-246.0-1.0","null","<p></p>","null","","","","","","","","","","","","","","","","","","",""
"","do_bye","465","1743034","0.0-247.0-0.0","null","","","","null","","","","","","","","","","","","","","","","",""
"","do_travel","466","1749041","0.0-248.0-0.0","null","","","","null","","","","","","","","","","","","","","","","",""
"","do_welcome","467","1750551","0.0-248.0-1.0","null","","","","null","","","","","","","","","","","","","","","","",""
"","do_trial","468","1756156","0.0-249.0-0.0","1052","","","","49","1,1,0","5","forest","190","probe-90","1","0.1804124827095973","0.08619771252799958","1","","","","","","","",""
"","html-keyboard-response","469","1757160","0.0-249.0-1.0","null","<p></p>","null","","","","","","","","","","","","","","","","","","",""
"","do_trial","470","1762230","0.0-250.0-0.0","518.1999999880791","","","","49","1,0,0","5","forest","191","probe-122","1","0.276104243950935","0.17925022677598043","1","","","","","","","",""
"","html-keyboard-response","471","1763236","0.0-250.0-1.0","null","<p></p>","null","","","","","","","","","","","","","","","","","","",""
"","do_trial","472","1768417","0.0-251.0-0.0","628.1000000238419","","","","49","1,0,0","5","forest","192","probe-204","0.8686393629689181","0.3289567442895699","0.28496548039059916","1","","","","","","","",""
"","html-keyboard-response","473","1769424","0.0-251.0-1.0","null","<p></p>","null","","","","","","","","","","","","","","","","","","",""
"","do_trial","474","1774486","0.0-252.0-0.0","509.39999997615814","","","","49","1,0,0","5","forest","193","probe-134","0.8040296192921439","0.28944557691466677","0.2715355908061506","1","","","","","","","",""
"","html-keyboard-response","475","1775491","0.0-252.0-1.0","null","<p></p>","null","","","","","","","","","","","","","","","","","","",""
"","do_trial","476","1780628","0.0-253.0-0.0","587.1000000238419","","","","49","0,1,1","5","forest","194","probe-135","0.7017462006917051","0.46710207234482526","0.17485494097143683","0","","","","","","","",""
"","html-keyboard-response","477","1781631","0.0-253.0-1.0","null","<p></p>","null","","","","","","","","","","","","","","","","","","",""
"","do_trial","478","1786547","0.0-254.0-0.0","362.69999998807907","","","","49","1,1,0","5","forest","195","probe-148","0.6558447874564151","0.41013422844703074","0.22452192520581782","1","","","","","","","",""
"","html-keyboard-response","479","1787553","0.0-254.0-1.0","null","<p></p>","null","","","","","","","","","","","","","","","","","","",""
"","do_trial","480","1792783","0.0-255.0-0.0","676.8999999761581","","","","49","1,0,0","5","forest","196","probe-71","0.6263760331801067","0.3337999351997007","0.2119382850205085","1","","","","","","","",""
"","html-keyboard-response","481","1793789","0.0-255.0-1.0","null","<p></p>","null","","","","","","","","","","","","","","","","","","",""
"","do_trial","482","1798693","0.0-256.0-0.0","350.5999999642372","","","","49","0,1,1","5","forest","197","probe-195","0.5391832778702945","0.4058236482069659","0.20745111381641443","0","","","","","","","",""
"","html-keyboard-response","483","1799697","0.0-256.0-1.0","null","<p></p>","null","","","","","","","","","","","","","","","","","","",""
"","do_trial","484","1804674","0.0-257.0-0.0","426.69999998807907","","","","49","1,0,0","5","forest","198","probe-129","0.6134779307403466","0.36723601945591117","0.15137743157888497","1","","","","","","","",""
"","html-keyboard-response","485","1805680","0.0-257.0-1.0","null","<p></p>","null","","","","","","","","","","","","","","","","","","",""
"","do_trial","486","1810694","0.0-258.0-0.0","461.5","","","","49","0,1,0","5","forest","199","probe-23","0.6167683447839288","0.48011616026239157","0.15679576479239554","0","","","","","","","",""
"","html-keyboard-response","487","1811700","0.0-258.0-1.0","null","<p></p>","null","","","","","","","","","","","","","","","","","","",""
"","do_trial","488","1816731","0.0-259.0-0.0","478","","","","49","0,1,0","5","forest","200","probe-66","0.5288999567548895","0.5945315908100741","0.12005057772065106","0","","","","","","","",""
"","html-keyboard-response","489","1817738","0.0-259.0-1.0","null","<p></p>","null","","","","","","","","","","","","","","","","","","",""
"","do_trial","490","1822661","0.0-260.0-0.0","371.5999999642372","","","","49","1,0,1","5","forest","201","probe-02","0.491968041360743","0.5265748763941333","0.3319521830631692","1","","","","","","","",""
"","html-keyboard-response","491","1823664","0.0-260.0-1.0","null","<p></p>","null","","","","","","","","","","","","","","","","","","",""
"","do_trial","492","1828916","0.0-261.0-0.0","699.5","","","","49","0,1,0","5","forest","202","probe-191","0.32139007781029255","0.5031507304389534","0.33220292728184797","0","","","","","","","",""
"","html-keyboard-response","493","1829921","0.0-261.0-1.0","null","<p></p>","null","","","","","","","","","","","","","","","","","","",""
"","do_trial","494","1834738","0.0-262.0-0.0","264.10000002384186","","","","49","0,1,1","5","forest","203","probe-04","0.22985057954368715","0.6979245174347715","0.2700233582861479","0","","","","","","","",""
"","html-keyboard-response","495","1835744","0.0-262.0-1.0","null","<p></p>","null","","","","","","","","","","","","","","","","","","",""
"","do_trial","496","1840698","0.0-263.0-0.0","403.80000001192093","","","","49","0,0,0","5","forest","204","probe-54","0.17256665362246817","0.5476537745997874","0.3156368124270533","0","","","","","","","",""
"","html-keyboard-response","497","1841704","0.0-263.0-1.0","null","<p></p>","null","","","","","","","","","","","","","","","","","","",""
"","do_trial","498","1846799","0.0-264.0-0.0","545.3000000119209","","","","50","0,0,0","5","forest","205","probe-48","0.08300923168705897","0.457574009061384","0.24514121019614396","0","","","","","","","",""
"","html-keyboard-response","499","1847806","0.0-264.0-1.0","null","<p></p>","null","","","","","","","","","","","","","","","","","","",""
"","do_trial","500","1852689","0.0-265.0-0.0","330.0999999642372","","","","50","0,1,0","5","forest","206","probe-146","0.12128741668735116","0.5677003834052167","0.24388224243414083","1","","","","","","","",""
"","html-keyboard-response","501","1853693","0.0-265.0-1.0","null","<p></p>","null","","","","","","","","","","","","","","","","","","",""
"","do_trial","502","1858593","0.0-266.0-0.0","349.19999998807907","","","","50","0,1,0","5","forest","207","probe-14","0.07604255446177778","0.551901976279764","0.2006527815313233","1","","","","","","","",""
"","html-keyboard-response","503","1859600","0.0-266.0-1.0","null","<p></p>","null","","","","","","","","","","","","","","","","","","",""
"","do_trial","504","1864700","0.0-267.0-0.0","546.8999999761581","","","","50","0,0,0","5","forest","208","probe-108","0.12348046960384876","0.5203089991095142","0.10046633406331491","0","","","","","","","",""
"","html-keyboard-response","505","1865706","0.0-267.0-1.0","null","<p></p>","null","","","","","","","","","","","","","","","","","","",""
"","do_trial","506","1870925","0.0-268.0-0.0","666.6000000238419","","","","50","0,1,0","5","forest","209","probe-162","0.06654098501361874","0.5804161921776031","0.21423386346507792","1","","","","","","","",""
"","html-keyboard-response","507","1871931","0.0-268.0-1.0","null","<p></p>","null","","","","","","","","","","","","","","","","","","",""
"","do_trial","508","1877113","0.0-269.0-0.0","633.5999999642372","","","","50","0,1,0","5","forest","210","probe-168","0.08544982605566251","0.5907340375055498","0.216056709594494","1","","","","","","","",""
"","html-keyboard-response","509","1878118","0.0-269.0-1.0","null","<p></p>","null","","","","","","","","","","","","","","","","","","",""
"","do_trial","510","1883116","0.0-270.0-0.0","445.5","","","","50","0,0,0","5","forest","211","probe-163","0.11858882859452759","0.6041584743350173","0.33326990698803044","0","","","","","","","",""
"","html-keyboard-response","511","1884123","0.0-270.0-1.0","null","<p></p>","null","","","","","","","","","","","","","","","","","","",""
"","do_trial","512","1889074","0.0-271.0-0.0","402","","","","50","0,1,0","5","forest","212","probe-97","0.1706209475269102","0.48574500076109345","0.3803405314540408","1","","","","","","","",""
"","html-keyboard-response","513","1890080","0.0-271.0-1.0","null","<p></p>","null","","","","","","","","","","","","","","","","","","",""
"","do_trial","514","1895060","0.0-272.0-0.0","427.39999997615814","","","","50","0,0,1","5","forest","213","probe-77","0.10284654203630691","0.47959766427248535","0.41722152210548447","0","","","","","","","",""
"","html-keyboard-response","515","1896066","0.0-272.0-1.0","null","<p></p>","null","","","","","","","","","","","","","","","","","","",""
"","do_trial","516","1900968","0.0-273.0-0.0","351.7000000476837","","","","50","1,0,0","5","forest","214","probe-69","0.14457575520294674","0.5659844312216606","0.23910183734923585","0","","","","","","","",""
"","html-keyboard-response","517","1901975","0.0-273.0-1.0","null","<p></p>","null","","","","","","","","","","","","","","","","","","",""
"","do_trial","518","1906879","0.0-274.0-0.0","354.30000001192093","","","","51","0,0,0","5","forest","215","probe-95","0.17981839771588423","0.49094521229155613","0.152007565088477","0","","","","","","","",""
"","html-keyboard-response","519","1907883","0.0-274.0-1.0","null","<p></p>","null","","","","","","","","","","","","","","","","","","",""
"","do_trial","520","1913606","0.0-275.0-0.0","1173.5999999642372","","","","51","0,0,1","5","forest","216","probe-160","0.23135307171044134","0.5450397711878004","0.2974284487391608","1","","","","","","","",""
"","html-keyboard-response","521","1914612","0.0-275.0-1.0","null","<p></p>","null","","","","","","","","","","","","","","","","","","",""
"","do_trial","522","1919600","0.0-276.0-0.0","435.19999998807907","","","","51","0,0,0","5","forest","217","probe-64","0.18825154210494685","0.48481716578779505","0.3029341808055211","0","","","","","","","",""
"","html-keyboard-response","523","1920603","0.0-276.0-1.0","null","<p></p>","null","","","","","","","","","","","","","","","","","","",""
"","do_trial","524","1925483","0.0-277.0-0.0","327.0999999642372","","","","51","0,1,0","5","forest","218","probe-51","0.1196777528372097","0.44218557169360645","0.3811280507693145","0","","","","","","","",""
"","html-keyboard-response","525","1926488","0.0-277.0-1.0","null","<p></p>","null","","","","","","","","","","","","","","","","","","",""
"","do_trial","526","1931366","0.0-278.0-0.0","329.19999998807907","","","","51","0,0,0","5","forest","219","probe-215","0.27798107900771035","0.6535443950058416","0.26435148213322146","0","","","","","","","",""
"","html-keyboard-response","527","1932372","0.0-278.0-1.0","null","<p></p>","null","","","","","","","","","","","","","","","","","","",""
"","do_trial","528","1937562","0.0-279.0-0.0","636.5","","","","51","0,0,0","5","forest","220","probe-91","0.12376264999279124","0.5591843460787789","0.3860990813145037","0","","","","","","","",""
"","html-keyboard-response","529","1938565","0.0-279.0-1.0","null","<p></p>","null","","","","","","","","","","","","","","","","","","",""
"","do_trial","530","1943472","0.0-280.0-0.0","359.19999998807907","","","","49","0,0,0","5","forest","221","probe-176","0.10465663478527565","0.523442319689828","0.43383585821362103","0","","","","","","","",""
