success,trial_type,trial_index,time_elapsed,internal_node_id,interactions,blur_events,focus_events,fullscreenenter_events,fullscreenexit_events,rt,stimulus,key_press,subject_id,participant_id,age,gender,prompt,response,choice_outcomes,context_n,context_img_id,trial_n,probe_img_id,pR_red,pR_white,pR_black,outcome,contextArray_ind,validImageProbes,invalidImageProbes,pRew_Red,pRew_White,pRew_Black,availableForMemProbe,choice_blocks
TRUE,fullscreen,0,3091,0.0-0.0,"""event"",""trial"",""time""
""fullscreenenter"",""0"",""2143""
","
","
","""event"",""trial"",""time""
""fullscreenenter"",""0"",""2143""
","
",,,,,,,,,,,,,,,,,,,,,,,,,,
,pavlovia,1,3094,0.0-1.0,"""event"",""trial"",""time""
""fullscreenenter"",""0"",""2143""
","
","
","""event"",""trial"",""time""
""fullscreenenter"",""0"",""2143""
","
",,,,,,,,,,,,,,,,,,,,,,,,,,
,instruc1,2,48225,0.0-2.0,"""event"",""trial"",""time""
""fullscreenenter"",""0"",""2143""
","
","
","""event"",""trial"",""time""
""fullscreenenter"",""0"",""2143""
","
",null,run_exp/static/audio/clip_1_welcome.m4a,null,364,891,23,Female,"<div class='center'><p>Welcome! This is the first part of the study. It will last ~30 minutes. In part 1 and part 2 of the study, you are the head captain of a pirate ship traveling around the world to different islands. You will play a few different games throughout these two parts. Here is an overview of them:</p><br><p>Part 1 (today)</p><p>1. Instructions, practice game, and quiz</p><p>2. Pick a pirate game on 6 different islands</p><br><p>Part 2 (tomorrow)</p><p>3. Pick a pirate game and memory game</p><p>4. Where did you see this ship? </p></div>",,,,,,,,,,,,,,,,,,
,html-keyboard-response,3,48870,0.0-3.0,"""event"",""trial"",""time""
""fullscreenenter"",""0"",""2143""
","
","
","""event"",""trial"",""time""
""fullscreenenter"",""0"",""2143""
","
",641.9,"<div class='center'><p>Welcome! This is the first part of the study. It will last ~30 minutes. In part 1 and part 2 of the study, you are the head captain of a pirate ship traveling around the world to different islands. You will play a few different games throughout these two parts. Here is an overview of them:</p><br><p>Part 1 (today)</p><p>1. Instructions, practice game, and quiz</p><p>2. Pick a pirate game on 6 different islands</p><br><p>Part 2 (tomorrow)</p><p>3. Pick a pirate game and memory game</p><p>4. Where did you see this ship? </p><p><b>[Press the space bar to continue]</b></p></div>",32,,,,,,,,,,,,,,,,,,,,,,,
,instruc2,4,54184,0.0-4.0,"""event"",""trial"",""time""
""fullscreenenter"",""0"",""2143""
","
","
","""event"",""trial"",""time""
""fullscreenenter"",""0"",""2143""
","
",null,run_exp/static/audio/clip_2_different_places.m4a,null,,,,,"<div class='center'><p>Today, you’ll visit these 6 islands on your journey. You'll be able to see these islands from your ship.</p><p><img src='run_exp/static/images/contexts/all_contexts.png' height='500'></p></div>",,,,,,,,,,,,,,,,,,
,html-keyboard-response,5,55273,0.0-5.0,"""event"",""trial"",""time""
""fullscreenenter"",""0"",""2143""
","
","
","""event"",""trial"",""time""
""fullscreenenter"",""0"",""2143""
","
",1087.3,"<div class='center'><p>Today, you’ll visit these 6 islands on your journey. You'll be able to see these islands from your ship.</p><p><img src='run_exp/static/images/contexts/all_contexts.png' height='500'></p><p><b>[Press the space bar to continue]</b></p></div>",32,,,,,,,,,,,,,,,,,,,,,,,
,instruc3,6,64964,0.0-6.0,"""event"",""trial"",""time""
""fullscreenenter"",""0"",""2143""
","
","
","""event"",""trial"",""time""
""fullscreenenter"",""0"",""2143""
","
",null,run_exp/static/audio/clip_3_goal_of_game_1.m4a,null,,,,,"<div class='center'><p> The pirates on your ship will rob other ships as they leave the island.</p> These ships have just sold their goods to the islanders, so they will be filled with lots and lots of gold.</p><p><img src='run_exp/static/images/tutorial/ship_center.png' height='400'></p></div>",,,,,,,,,,,,,,,,,,
,html-keyboard-response,7,66154,0.0-7.0,"""event"",""trial"",""time""
""fullscreenenter"",""0"",""2143""
","
","
","""event"",""trial"",""time""
""fullscreenenter"",""0"",""2143""
","
",1188.2,"<div class='center'><p> The pirates on your ship will rob other ships as they leave the island.</p> These ships have just sold their goods to the islanders, so they will be filled with lots and lots of gold.</p><p><img src='run_exp/static/images/tutorial/ship_center.png' height='400'></p><p><b>[Press the space bar to continue]</b></p></div>",32,,,,,,,,,,,,,,,,,,,,,,,
,instruc4,8,94165,0.0-8.0,"""event"",""trial"",""time""
""fullscreenenter"",""0"",""2143""
","
","
","""event"",""trial"",""time""
""fullscreenenter"",""0"",""2143""
","
",null,run_exp/static/audio/clip_4_goal_of_game_2.m4a,null,,,,,"<div class='center'><p>As the head captain, you do not have to rob any ships yourself. Another pirate will be doing the robbing for you. First, you will choose a pirate to rob the next ship.</p><p><img src='run_exp/static/images/tutorial/pirates_all_crop.png' height='200'></p><p>Then, you'll see if the pirate successfully robbed the ship of their gold. If they were successful, then you'll get a stack of gold coins like this:</p><p><img src='run_exp/static/images/tutorial/reward.png' height='150'></p><p> If they were <b>not</b> successful, then you'll get no gold coins, and you'll see a big red x like this: </p><p><img src='run_exp/static/images/tutorial/reward_no.png' height='150'></p><p> How much bonus money you make is based on how many gold coins you collect.</p><div>",,,,,,,,,,,,,,,,,,
,html-keyboard-response,9,96529,0.0-9.0,"""event"",""trial"",""time""
""fullscreenenter"",""0"",""2143""
","
","
","""event"",""trial"",""time""
""fullscreenenter"",""0"",""2143""
","
",2361,"<div class='center'><p>As the head captain, you do not have to rob any ships yourself. Another pirate will be doing the robbing for you. First, you will choose a pirate to rob the next ship.</p><p><img src='run_exp/static/images/tutorial/pirates_all_crop.png' height='200'></p><p>Then, you'll see if the pirate successfully robbed the ship of their gold. If they were successful, then you'll get a stack of gold coins like this:</p><p><img src='run_exp/static/images/tutorial/reward.png' height='150'></p><p> If they were <b>not</b> successful, then you'll get no gold coins, and you'll see a big red x like this: </p><p><img src='run_exp/static/images/tutorial/reward_no.png' height='150'></p><p> How much bonus money you make is based on how many gold coins you collect.</p<p><b>[Press the space bar to continue]</b></p></div>",32,,,,,,,,,,,,,,,,,,,,,,,
,instruc5,10,117302,0.0-10.0,"""event"",""trial"",""time""
""fullscreenenter"",""0"",""2143""
","
","
","""event"",""trial"",""time""
""fullscreenenter"",""0"",""2143""
","
",20770.4,run_exp/static/audio/clip_5_probabilistic.m4a,49,,,,,"<div class='center'><p>Even the most skilled pirate can not rob EVERY ship.</p><p> Some ships will have very strong protections against pirate attacks.</p><p> Blue beard, here, is very, very good at robbing ships, but he won't be successful every time he tries to rob one.</p><p> You can press the <b>‘1’</b> key on the keyboard to choose him.</p><p> Try choosing him 10 times to see how often he succeeds at robbing a ship. </p><p><img src='run_exp/static/images/tutorial/blue.png' height='500'></p></div>",,,,,,,,,,,,,,,,,,
,html-keyboard-response,11,118818,0.0-11.0,"""event"",""trial"",""time""
""fullscreenenter"",""0"",""2143""
","
","
","""event"",""trial"",""time""
""fullscreenenter"",""0"",""2143""
","
",null,<div class='center'><p><img src='run_exp/static/images/tutorial/blue_win.png' height='500'></p></div>,null,,,,,,,,,,,,,,,,,,,,,,,
,html-keyboard-response,12,119815,0.0-12.0,"""event"",""trial"",""time""
""fullscreenenter"",""0"",""2143""
","
","
","""event"",""trial"",""time""
""fullscreenenter"",""0"",""2143""
","
",996.8,<div class='center'><img src='run_exp/static/images/tutorial/blue.png' height='500'></p></div>,49,,,,,,,,,,,,,,,,,,,,,,,
,html-keyboard-response,13,121331,0.0-13.0,"""event"",""trial"",""time""
""fullscreenenter"",""0"",""2143""
","
","
","""event"",""trial"",""time""
""fullscreenenter"",""0"",""2143""
","
",null,<div class='center'><p><img src='run_exp/static/images/tutorial/blue_win.png' height='500'></p></div>,null,,,,,,,,,,,,,,,,,,,,,,,
,html-keyboard-response,14,121660,0.0-14.0,"""event"",""trial"",""time""
""fullscreenenter"",""0"",""2143""
","
","
","""event"",""trial"",""time""
""fullscreenenter"",""0"",""2143""
","
",327.5,<div class='center'><img src='run_exp/static/images/tutorial/blue.png' height='500'></p></div>,49,,,,,,,,,,,,,,,,,,,,,,,
,html-keyboard-response,15,123173,0.0-15.0,"""event"",""trial"",""time""
""fullscreenenter"",""0"",""2143""
","
","
","""event"",""trial"",""time""
""fullscreenenter"",""0"",""2143""
","
",null,<div class='center'><p><img src='run_exp/static/images/tutorial/blue_win.png' height='500'></p></div>,null,,,,,,,,,,,,,,,,,,,,,,,
,html-keyboard-response,16,123434,0.0-16.0,"""event"",""trial"",""time""
""fullscreenenter"",""0"",""2143""
","
","
","""event"",""trial"",""time""
""fullscreenenter"",""0"",""2143""
","
",260.1,<div class='center'><img src='run_exp/static/images/tutorial/blue.png' height='500'></p></div>,49,,,,,,,,,,,,,,,,,,,,,,,
,html-keyboard-response,17,124946,0.0-17.0,"""event"",""trial"",""time""
""fullscreenenter"",""0"",""2143""
","
","
","""event"",""trial"",""time""
""fullscreenenter"",""0"",""2143""
","
",null,<div class='center'><p><img src='run_exp/static/images/tutorial/blue_no_win.png' height='500'></p></div>,null,,,,,,,,,,,,,,,,,,,,,,,
,html-keyboard-response,18,125294,0.0-18.0,"""event"",""trial"",""time""
""fullscreenenter"",""0"",""2143""
","
","
","""event"",""trial"",""time""
""fullscreenenter"",""0"",""2143""
","
",347.3,<div class='center'><img src='run_exp/static/images/tutorial/blue.png' height='500'></p></div>,49,,,,,,,,,,,,,,,,,,,,,,,
,html-keyboard-response,19,126804,0.0-19.0,"""event"",""trial"",""time""
""fullscreenenter"",""0"",""2143""
","
","
","""event"",""trial"",""time""
""fullscreenenter"",""0"",""2143""
","
",null,<div class='center'><p><img src='run_exp/static/images/tutorial/blue_win.png' height='500'></p></div>,null,,,,,,,,,,,,,,,,,,,,,,,
,html-keyboard-response,20,127075,0.0-20.0,"""event"",""trial"",""time""
""fullscreenenter"",""0"",""2143""
","
","
","""event"",""trial"",""time""
""fullscreenenter"",""0"",""2143""
","
",270.7,<div class='center'><img src='run_exp/static/images/tutorial/blue.png' height='500'></p></div>,49,,,,,,,,,,,,,,,,,,,,,,,
,html-keyboard-response,21,128580,0.0-21.0,"""event"",""trial"",""time""
""fullscreenenter"",""0"",""2143""
","
","
","""event"",""trial"",""time""
""fullscreenenter"",""0"",""2143""
","
",null,<div class='center'><p><img src='run_exp/static/images/tutorial/blue_win.png' height='500'></p></div>,null,,,,,,,,,,,,,,,,,,,,,,,
,html-keyboard-response,22,128800,0.0-22.0,"""event"",""trial"",""time""
""fullscreenenter"",""0"",""2143""
","
","
","""event"",""trial"",""time""
""fullscreenenter"",""0"",""2143""
","
",219,<div class='center'><img src='run_exp/static/images/tutorial/blue.png' height='500'></p></div>,49,,,,,,,,,,,,,,,,,,,,,,,
,html-keyboard-response,23,130311,0.0-23.0,"""event"",""trial"",""time""
""fullscreenenter"",""0"",""2143""
","
","
","""event"",""trial"",""time""
""fullscreenenter"",""0"",""2143""
","
",null,<div class='center'><p><img src='run_exp/static/images/tutorial/blue_win.png' height='500'></p></div>,null,,,,,,,,,,,,,,,,,,,,,,,
,html-keyboard-response,24,130552,0.0-24.0,"""event"",""trial"",""time""
""fullscreenenter"",""0"",""2143""
","
","
","""event"",""trial"",""time""
""fullscreenenter"",""0"",""2143""
","
",240,<div class='center'><img src='run_exp/static/images/tutorial/blue.png' height='500'></p></div>,49,,,,,,,,,,,,,,,,,,,,,,,
,html-keyboard-response,25,132059,0.0-25.0,"""event"",""trial"",""time""
""fullscreenenter"",""0"",""2143""
","
","
","""event"",""trial"",""time""
""fullscreenenter"",""0"",""2143""
","
",null,<div class='center'><p><img src='run_exp/static/images/tutorial/blue_no_win.png' height='500'></p></div>,null,,,,,,,,,,,,,,,,,,,,,,,
,html-keyboard-response,26,132372,0.0-26.0,"""event"",""trial"",""time""
""fullscreenenter"",""0"",""2143""
","
","
","""event"",""trial"",""time""
""fullscreenenter"",""0"",""2143""
","
",311.8,<div class='center'><img src='run_exp/static/images/tutorial/blue.png' height='500'></p></div>,49,,,,,,,,,,,,,,,,,,,,,,,
,html-keyboard-response,27,133884,0.0-27.0,"""event"",""trial"",""time""
""fullscreenenter"",""0"",""2143""
","
","
","""event"",""trial"",""time""
""fullscreenenter"",""0"",""2143""
","
",null,<div class='center'><p><img src='run_exp/static/images/tutorial/blue_win.png' height='500'></p></div>,null,,,,,,,,,,,,,,,,,,,,,,,
,html-keyboard-response,28,134126,0.0-28.0,"""event"",""trial"",""time""
""fullscreenenter"",""0"",""2143""
","
","
","""event"",""trial"",""time""
""fullscreenenter"",""0"",""2143""
","
",240.8,<div class='center'><img src='run_exp/static/images/tutorial/blue.png' height='500'></p></div>,49,,,,,,,,,,,,,,,,,,,,,,,
,html-keyboard-response,29,135629,0.0-29.0,"""event"",""trial"",""time""
""fullscreenenter"",""0"",""2143""
","
","
","""event"",""trial"",""time""
""fullscreenenter"",""0"",""2143""
","
",null,<div class='center'><p><img src='run_exp/static/images/tutorial/blue_win.png' height='500'></p></div>,null,,,,,,,,,,,,,,,,,,,,,,,
,instruc6,30,141042,0.0-30.0,"""event"",""trial"",""time""
""fullscreenenter"",""0"",""2143""
","
","
","""event"",""trial"",""time""
""fullscreenenter"",""0"",""2143""
","
",null,run_exp/static/audio/clip_6_blue_beard_outcome.m4a,null,,,,,"<div class='center'><p> See, he succeeded in robbing the ships most of the time but not every time. </p></div>",,,,,,,,,,,,,,,,,,
,html-keyboard-response,31,142244,0.0-31.0,"""event"",""trial"",""time""
""fullscreenenter"",""0"",""2143""
","
","
","""event"",""trial"",""time""
""fullscreenenter"",""0"",""2143""
","
",1201.2,"<div class='center'><p> See, he succeeded in robbing the ships most of the time but not every time. </p><p><b>[Press the space bar to continue]</b></p></div>",32,,,,,,,,,,,,,,,,,,,,,,,
,audio-keyboard-response,32,160615,0.0-32.0,"""event"",""trial"",""time""
""fullscreenenter"",""0"",""2143""
","
","
","""event"",""trial"",""time""
""fullscreenenter"",""0"",""2143""
","
",18370.2,run_exp/static/audio/clip_7_pick_pirate.m4a,51,,,,,,,,,,,,,,,,,,,,,,,
,audio-keyboard-response,33,164566,0.0-33.0-0.0,"""event"",""trial"",""time""
""fullscreenenter"",""0"",""2143""
","
","
","""event"",""trial"",""time""
""fullscreenenter"",""0"",""2143""
","
",3948.8,run_exp/static/audio/clip_8_chosen_pirate_win.m4a,32,,,,,,,,,,,,,,,,,,,,,,,
,audio-keyboard-response,34,166811,0.0-33.0-1.0,"""event"",""trial"",""time""
""fullscreenenter"",""0"",""2143""
","
","
","""event"",""trial"",""time""
""fullscreenenter"",""0"",""2143""
","
",2244.1,run_exp/static/audio/clip_9_pick_a_pirate_again.m4a,49,,,,,,,,,,,,,,,,,,,,,,,
,audio-keyboard-response,35,168423,0.0-34.0-0.0,"""event"",""trial"",""time""
""fullscreenenter"",""0"",""2143""
","
","
","""event"",""trial"",""time""
""fullscreenenter"",""0"",""2143""
","
",1610.5,run_exp/static/audio/clip_10_chosen_pirate_loss.m4a,32,,,,,,,,,,,,,,,,,,,,,,,
,instruc9,36,173921,0.0-35.0-0.0,"""event"",""trial"",""time""
""fullscreenenter"",""0"",""2143""
","
","
","""event"",""trial"",""time""
""fullscreenenter"",""0"",""2143""
","
",null,run_exp/static/audio/clip_11_time_out.m4a,null,,,,,"<div class='center'><p>If you don’t make your choice fast enough, you’ll have to wait a few seconds before you can make another one. </p><p><img src='run_exp/static/images/miscellaneous/hurry_up.png' height='500'></p></div>",,,,,,,,,,,,,,,,,,
,html-keyboard-response,37,180873,0.0-35.0-1.0,"""event"",""trial"",""time""
""fullscreenenter"",""0"",""2143""
","
","
","""event"",""trial"",""time""
""fullscreenenter"",""0"",""2143""
","
",6951,"<div class='center'><p>If you don’t make your choice fast enough, you’ll have to wait a few seconds before you can make another one. </p><p><img src='run_exp/static/images/miscellaneous/hurry_up.png' height='500'></p><p><b>[Press the space bar to continue]</b></p></div>",32,,,,,,,,,,,,,,,,,,,,,,,
,instruc10,38,219981,0.0-35.0-2.0,"""event"",""trial"",""time""
""fullscreenenter"",""0"",""2143""
","
","
","""event"",""trial"",""time""
""fullscreenenter"",""0"",""2143""
","
",null,run_exp/static/audio/clip_12_probe.m4a,null,,,,,"<div class='center'><p>Once you've chosen a pirate, you’ll be shown the ship they are robbing. You will never rob the same ship twice. Ships can be told apart from one another by the image on them. These are the goods that they sell. See, this ship has a travel mug on it. </p><p> You’ll have to remember which island you saw each ship on. You will win more gold coins and hence more bonus money if you remember correctly! To help you remember, you can imagine a story. For example, here, you could imagine a mug full of water in the desert. Or, as another example, if on the forest island, your pirate robbed a ship with an apple on it, you could imagine an apple falling from a tree in the forest. </p><p><img src='run_exp/static/images/tutorial/example_probe.png' height='500'></p></div>",,,,,,,,,,,,,,,,,,
,html-keyboard-response,39,224536,0.0-35.0-3.0,"""event"",""trial"",""time""
""fullscreenenter"",""0"",""2143""
","
","
","""event"",""trial"",""time""
""fullscreenenter"",""0"",""2143""
","
",4553.9,"<div class='center'><p>Once you've chosen a pirate, you’ll be shown the ship they are robbing. You will never rob the same ship twice. Ships can be told apart from one another by the image on them. These are the goods that they sell. See, this ship has a travel mug on it. </p><p> You’ll have to remember which island you saw each ship on. You will win more gold coins and hence more bonus money if you remember correctly! To help you remember, you can imagine a story. For example, here, you could imagine a mug full of water in the desert. Or, as another example, if on the forest island, your pirate robbed a ship with an apple on it, you could imagine an apple falling from a tree in the forest. </p><p><img src='run_exp/static/images/tutorial/example_probe.png' height='500'></p><p><b>[Press the space bar to continue]</b></p></div>",32,,,,,,,,,,,,,,,,,,,,,,,
,instruc11,40,240961,0.0-35.0-4.0,"""event"",""trial"",""time""
""fullscreenenter"",""0"",""2143""
","
","
","""event"",""trial"",""time""
""fullscreenenter"",""0"",""2143""
","
",null,run_exp/static/audio/clip_13_changepoint.m4a,null,,,,,"<div class='center'><p>How successful a pirate is at robbing ships will depend on the island you’re on.</p><p> A pirate may have visited this island many times before and gained a lot of practice robbing ships there.</p><p>So, they’re more likely to be successful than a pirate who has never visited the island before.</p></div>",,,,,,,,,,,,,,,,,,
,html-keyboard-response,41,242080,0.0-35.0-5.0,"""event"",""trial"",""time""
""fullscreenenter"",""0"",""2143""
","
","
","""event"",""trial"",""time""
""fullscreenenter"",""0"",""2143""
","
",1118.2,"<div class='center'><p>How successful a pirate is at robbing ships will depend on the island you’re on.</p><p> A pirate may have visited this island many times before and gained a lot of practice robbing ships there.</p><p>So, they’re more likely to be successful than a pirate who has never visited the island before.</p><p><b>[Press the space bar to continue]</b></p></div>",32,,,,,,,,,,,,,,,,,,,,,,,
,instruc12,42,283181,0.0-35.0-6.0,"""event"",""trial"",""time""
""fullscreenenter"",""0"",""2143""
","
","
","""event"",""trial"",""time""
""fullscreenenter"",""0"",""2143""
","
",null,run_exp/static/audio/clip_14_drift.m4a,null,,,,,"<div class='center'><p>How successful a pirate is at robbing ships can also change over the time spent on the island. </p><p> Ships may hear from islanders about the pirates coming and will improve their protections against the attack. This may make it harder to rob them.</p><p> Ships may also become lazy and weaken the strength of their protections. This may make it easier to rob them.</p><br><p>Things are always changing on the high seas! So, try your best to pay attention!</p><p><img src='run_exp/static/images/tutorial/contingency.png' height='500'></p></div>",,,,,,,,,,,,,,,,,,
,html-keyboard-response,43,284958,0.0-35.0-7.0,"""event"",""trial"",""time""
""fullscreenenter"",""0"",""2143""
","
","
","""event"",""trial"",""time""
""fullscreenenter"",""0"",""2143""
","
",1775.2,"<div class='center'><p>How successful a pirate is at robbing ships can also change over the time spent on the island. </p><p> Ships may hear from islanders about the pirates coming and will improve their protections against the attack. This may make it harder to rob them.</p><p> Ships may also become lazy and weaken the strength of their protections. This may make it easier to rob them.</p><br><p>Things are always changing on the high seas! So, try your best to pay attention!</p><p><img src='run_exp/static/images/tutorial/contingency.png' height='500'></p><p><b>[Press the space bar to continue]</b></p></div>",32,,,,,,,,,,,,,,,,,,,,,,,
,instruc13,44,320161,0.0-35.0-8.0,"""event"",""trial"",""time""
""fullscreenenter"",""0"",""2143""
","
","
","""event"",""trial"",""time""
""fullscreenenter"",""0"",""2143""
","
",null,run_exp/static/audio/clip_15_summary.m4a,null,,,,,"<div class='center'><p>Let's go over the instructions quickly again. You have two important things to do: </p><b><p> 1. Pick the pirate who is the best at robbing ships on the current island. </p></b><b><p> 2. Remember on which island a ship was robbed.</p> </b><p>The amount of bonus money you can win depends on both.</p><p><br><p>Let’s try a practice game. The game will start by showing you the pirates. First, pick a pirate using the <b> 1, 2, 3 </b> keys on your keyboard. When you are shown a ship, try to remember which island you’re on by making up a story.</p><p>This is just a practice game, so you’re not playing for money. </p><p> Good luck! This game will be very difficult but try your best!</p></div>",,,,,,,,,,,,,,,,,,
,html-keyboard-response,45,320573,0.0-35.0-9.0,"""event"",""trial"",""time""
""fullscreenenter"",""0"",""2143""
","
","
","""event"",""trial"",""time""
""fullscreenenter"",""0"",""2143""
","
",410.4,"<div class='center'><p>Let's go over the instructions quickly again. You have two important things to do: </p><b><p> 1. Pick the pirate who is the best at robbing ships on the current island. </p></b><b><p> 2. Remember on which island a ship was robbed.</p> </b><p>The amount of bonus money you can win depends on both.</p><p><br><p>Let’s try a practice game. The game will start by showing you the pirates. First, pick a pirate using the <b> 1, 2, 3 </b> keys on your keyboard. When you are shown a ship, try to remember which island you’re on by making up a story.</p><p>This is just a practice game, so you’re not playing for money. </p><p> Good luck! This game will be very difficult but try your best!</p><p><b>[Press the space bar to continue]</b></p></div>",32,,,,,,,,,,,,,,,,,,,,,,,
,do_welcome,46,324590,0.0-35.0-10.0,"""event"",""trial"",""time""
""fullscreenenter"",""0"",""2143""
","
","
","""event"",""trial"",""time""
""fullscreenenter"",""0"",""2143""
","
",null,,,,,,,,null,,,,,,,,,,,,,,,,,
,do_trial,47,330955,0.0-35.0-11.0,"""event"",""trial"",""time""
""fullscreenenter"",""0"",""2143""
","
","
","""event"",""trial"",""time""
""fullscreenenter"",""0"",""2143""
","
",1844,,,,,,,,51,"1,0,0",,,,,,,,,,,,,,,,
,html-keyboard-response,48,331969,0.0-36.0-0.0,"""event"",""trial"",""time""
""fullscreenenter"",""0"",""2143""
","
","
","""event"",""trial"",""time""
""fullscreenenter"",""0"",""2143""
","
",null,<p></p>,null,,,,,,,,,,,,,,,,,,,,,,,
,do_trial,49,338370,0.0-36.0-1.0,"""event"",""trial"",""time""
""fullscreenenter"",""0"",""2143""
","
","
","""event"",""trial"",""time""
""fullscreenenter"",""0"",""2143""
","
",1888,,,,,,,,49,"1,1,0",,,,,,,,,,,,,,,,
,html-keyboard-response,50,339378,0.0-37.0-0.0,"""event"",""trial"",""time""
""fullscreenenter"",""0"",""2143""
","
","
","""event"",""trial"",""time""
""fullscreenenter"",""0"",""2143""
","
",null,<p></p>,null,,,,,,,,,,,,,,,,,,,,,,,
,do_trial,51,344676,0.0-37.0-1.0,"""event"",""trial"",""time""
""fullscreenenter"",""0"",""2143""
","
","
","""event"",""trial"",""time""
""fullscreenenter"",""0"",""2143""
","
",788.3,,,,,,,,50,"1,0,1",,,,,,,,,,,,,,,,
,html-keyboard-response,52,345683,0.0-38.0-0.0,"""event"",""trial"",""time""
""fullscreenenter"",""0"",""2143""
","
","
","""event"",""trial"",""time""
""fullscreenenter"",""0"",""2143""
","
",null,<p></p>,null,,,,,,,,,,,,,,,,,,,,,,,
,do_trial,53,351941,0.0-38.0-1.0,"""event"",""trial"",""time""
""fullscreenenter"",""0"",""2143""
","
","
","""event"",""trial"",""time""
""fullscreenenter"",""0"",""2143""
","
",1743,,,,,,,,51,"0,1,0",,,,,,,,,,,,,,,,
,html-keyboard-response,54,352949,0.0-39.0-0.0,"""event"",""trial"",""time""
""fullscreenenter"",""0"",""2143""
","
","
","""event"",""trial"",""time""
""fullscreenenter"",""0"",""2143""
","
",null,<p></p>,null,,,,,,,,,,,,,,,,,,,,,,,
,do_trial,55,357767,0.0-39.0-1.0,"""event"",""trial"",""time""
""fullscreenenter"",""0"",""2143""
","
","
","""event"",""trial"",""time""
""fullscreenenter"",""0"",""2143""
","
",305.2,,,,,,,,50,"1,0,0",,,,,,,,,,,,,,,,
,do_bye,56,359277,0.0-40.0-0.0,"""event"",""trial"",""time""
""fullscreenenter"",""0"",""2143""
","
","
","""event"",""trial"",""time""
""fullscreenenter"",""0"",""2143""
","
",null,,,,,,,,null,,,,,,,,,,,,,,,,,
,do_travel,57,368291,0.0-40.0-1.0,"""event"",""trial"",""time""
""fullscreenenter"",""0"",""2143""
","
","
","""event"",""trial"",""time""
""fullscreenenter"",""0"",""2143""
","
",null,,,,,,,,null,,,,,,,,,,,,,,,,,
,do_welcome,58,372298,0.0-40.0-2.0,"""event"",""trial"",""time""
""fullscreenenter"",""0"",""2143""
","
","
","""event"",""trial"",""time""
""fullscreenenter"",""0"",""2143""
","
",null,,,,,,,,null,,,,,,,,,,,,,,,,,
,do_trial,59,378363,0.0-40.0-3.0,"""event"",""trial"",""time""
""fullscreenenter"",""0"",""2143""
","
","
","""event"",""trial"",""time""
""fullscreenenter"",""0"",""2143""
","
",1553.4,,,,,,,,51,"1,0,0",,,,,,,,,,,,,,,,
,html-keyboard-response,60,379367,0.0-41.0-0.0,"""event"",""trial"",""time""
""fullscreenenter"",""0"",""2143""
","
","
","""event"",""trial"",""time""
""fullscreenenter"",""0"",""2143""
","
",null,<p></p>,null,,,,,,,,,,,,,,,,,,,,,,,
,do_trial,61,384184,0.0-41.0-1.0,"""event"",""trial"",""time""
""fullscreenenter"",""0"",""2143""
","
","
","""event"",""trial"",""time""
""fullscreenenter"",""0"",""2143""
","
",304.1,,,,,,,,49,"1,0,1",,,,,,,,,,,,,,,,
,html-keyboard-response,62,385188,0.0-42.0-0.0,"""event"",""trial"",""time""
""fullscreenenter"",""0"",""2143""
","
","
","""event"",""trial"",""time""
""fullscreenenter"",""0"",""2143""
","
",null,<p></p>,null,,,,,,,,,,,,,,,,,,,,,,,
,do_trial,63,391120,0.0-42.0-1.0,"""event"",""trial"",""time""
""fullscreenenter"",""0"",""2143""
","
","
","""event"",""trial"",""time""
""fullscreenenter"",""0"",""2143""
","
",1411.7,,,,,,,,49,"1,1,0",,,,,,,,,,,,,,,,
,html-keyboard-response,64,392131,0.0-43.0-0.0,"""event"",""trial"",""time""
""fullscreenenter"",""0"",""2143""
","
","
","""event"",""trial"",""time""
""fullscreenenter"",""0"",""2143""
","
",null,<p></p>,null,,,,,,,,,,,,,,,,,,,,,,,
,do_trial,65,398167,0.0-43.0-1.0,"""event"",""trial"",""time""
""fullscreenenter"",""0"",""2143""
","
","
","""event"",""trial"",""time""
""fullscreenenter"",""0"",""2143""
","
",1516.3,,,,,,,,50,"0,0,1",,,,,,,,,,,,,,,,
,html-keyboard-response,66,399174,0.0-44.0-0.0,"""event"",""trial"",""time""
""fullscreenenter"",""0"",""2143""
","
","
","""event"",""trial"",""time""
""fullscreenenter"",""0"",""2143""
","
",null,<p></p>,null,,,,,,,,,,,,,,,,,,,,,,,
,do_trial,67,403982,0.0-44.0-1.0,"""event"",""trial"",""time""
""fullscreenenter"",""0"",""2143""
","
","
","""event"",""trial"",""time""
""fullscreenenter"",""0"",""2143""
","
",296,,,,,,,,49,"1,0,1",,,,,,,,,,,,,,,,
,html-keyboard-response,68,405414,0.0-45.0-0.0,"""event"",""trial"",""time""
""fullscreenenter"",""0"",""2143""
","
","
","""event"",""trial"",""time""
""fullscreenenter"",""0"",""2143""
","
",1429.4,<div class='center'><p><img src='run_exp/static/images/tutorial/prac_best_pirate.png'  height='500'></p></div>,49,,,,,,,,,,,,,,,,,,,,,,,
,html-keyboard-response,69,406694,0.0-46.0-0.0,"""event"",""trial"",""time""
""fullscreenenter"",""0"",""2143""
","
","
","""event"",""trial"",""time""
""fullscreenenter"",""0"",""2143""
","
",1278.6,<div class='center'><p>That's correct! Red beard was the best.</p><p><b>[Press the space bar to continue]</b></p></div>,32,,,,,,,,,,,,,,,,,,,,,,,
,html-keyboard-response,70,411454,0.0-46.0-1.0,"""event"",""trial"",""time""
""fullscreenenter"",""0"",""2143""
","
","
","""event"",""trial"",""time""
""fullscreenenter"",""0"",""2143""
","
",4760.1,<div class='center'><p><img src='run_exp/static/images/tutorial/prac_source.png'  height='500'></p></div>,50,,,,,,,,,,,,,,,,,,,,,,,
,html-keyboard-response,71,412881,0.0-47.0-0.0,"""event"",""trial"",""time""
""fullscreenenter"",""0"",""2143""
","
","
","""event"",""trial"",""time""
""fullscreenenter"",""0"",""2143""
","
",1426.3,<div class='center'><p>That's correct! You saw this ship on the cavern island.</p><p><b>[Press the space bar to continue]</b></p></div>,32,,,,,,,,,,,,,,,,,,,,,,,
,quiz_beginning,72,424218,0.0-47.0-1.0,"""event"",""trial"",""time""
""fullscreenenter"",""0"",""2143""
","
","
","""event"",""trial"",""time""
""fullscreenenter"",""0"",""2143""
","
",null,run_exp/static/audio/clip_16_quiz_intro.m4a,null,,,,,"<div class='center'><p>Good job on the practice game! Now, you will be asked some true or false questions to make sure you really understand the rules of the game.</p><p> Press <b>'1'</b> on the keyboard for true and press <b>'2'</b> for false.</p></div>",,,,,,,,,,,,,,,,,,
,audio-keyboard-response,73,427500,0.0-47.0-2.0,"""event"",""trial"",""time""
""fullscreenenter"",""0"",""2143""
","
","
","""event"",""trial"",""time""
""fullscreenenter"",""0"",""2143""
","
",3280.6,run_exp/static/audio/clip_17_q1.m4a,49,,,,,,,,,,,,,,,,,,,,,,,
,correct,74,429919,0.0-48.0-0.0,"""event"",""trial"",""time""
""fullscreenenter"",""0"",""2143""
","
","
","""event"",""trial"",""time""
""fullscreenenter"",""0"",""2143""
","
",null,run_exp/static/audio/clip_18_correct.m4a,null,,,,,<div class='center'><p>That's correct!</p></div>,,,,,,,,,,,,,,,,,,
,html-keyboard-response,75,430755,0.0-48.0-1.0,"""event"",""trial"",""time""
""fullscreenenter"",""0"",""2143""
","
","
","""event"",""trial"",""time""
""fullscreenenter"",""0"",""2143""
","
",835.6,<div class='center'><p>That's correct!</p><p><b>[Press the space bar to continue]</b></p></div>,32,,,,,,,,,,,,,,,,,,,,,,,
,audio-keyboard-response,76,437547,0.0-48.0-2.0,"""event"",""trial"",""time""
""fullscreenenter"",""0"",""2143""
","
","
","""event"",""trial"",""time""
""fullscreenenter"",""0"",""2143""
","
",6791.2,run_exp/static/audio/clip_20_q2.m4a,50,,,,,,,,,,,,,,,,,,,,,,,
,correct,77,439939,0.0-49.0-0.0,"""event"",""trial"",""time""
""fullscreenenter"",""0"",""2143""
","
","
","""event"",""trial"",""time""
""fullscreenenter"",""0"",""2143""
","
",null,run_exp/static/audio/clip_18_correct.m4a,null,,,,,<div class='center'><p>That's correct!</p></div>,,,,,,,,,,,,,,,,,,
,html-keyboard-response,78,440379,0.0-49.0-1.0,"""event"",""trial"",""time""
""fullscreenenter"",""0"",""2143""
","
","
","""event"",""trial"",""time""
""fullscreenenter"",""0"",""2143""
","
",440,<div class='center'><p>That's correct!</p><p><b>[Press the space bar to continue]</b></p></div>,32,,,,,,,,,,,,,,,,,,,,,,,
,audio-keyboard-response,79,443837,0.0-49.0-2.0,"""event"",""trial"",""time""
""fullscreenenter"",""0"",""2143""
","
","
","""event"",""trial"",""time""
""fullscreenenter"",""0"",""2143""
","
",3456.9,run_exp/static/audio/clip_22_q3.m4a,50,,,,,,,,,,,,,,,,,,,,,,,
,correct,80,446239,0.0-50.0-0.0,"""event"",""trial"",""time""
""fullscreenenter"",""0"",""2143""
","
","
","""event"",""trial"",""time""
""fullscreenenter"",""0"",""2143""
","
",null,run_exp/static/audio/clip_18_correct.m4a,null,,,,,<div class='center'><p>That's correct!</p></div>,,,,,,,,,,,,,,,,,,
,html-keyboard-response,81,446525,0.0-50.0-1.0,"""event"",""trial"",""time""
""fullscreenenter"",""0"",""2143""
","
","
","""event"",""trial"",""time""
""fullscreenenter"",""0"",""2143""
","
",284.6,<div class='center'><p>That's correct!</p><p><b>[Press the space bar to continue]</b></p></div>,32,,,,,,,,,,,,,,,,,,,,,,,
,audio-keyboard-response,82,448503,0.0-50.0-2.0,"""event"",""trial"",""time""
""fullscreenenter"",""0"",""2143""
","
","
","""event"",""trial"",""time""
""fullscreenenter"",""0"",""2143""
","
",1977.8,run_exp/static/audio/clip_24_q4.m4a,49,,,,,,,,,,,,,,,,,,,,,,,
,correct,83,450959,0.0-51.0-0.0,"""event"",""trial"",""time""
""fullscreenenter"",""0"",""2143""
","
","
","""event"",""trial"",""time""
""fullscreenenter"",""0"",""2143""
","
",null,run_exp/static/audio/clip_18_correct.m4a,null,,,,,<div class='center'><p>That's correct!</p></div>,,,,,,,,,,,,,,,,,,
,html-keyboard-response,84,451410,0.0-51.0-1.0,"""event"",""trial"",""time""
""fullscreenenter"",""0"",""2143""
","
","
","""event"",""trial"",""time""
""fullscreenenter"",""0"",""2143""
","
",450.9,<div class='center'><p>That's correct!</p><p><b>[Press the space bar to continue]</b></p></div>,32,,,,,,,,,,,,,,,,,,,,,,,
,q_all_corr,85,459899,0.0-52.0-0.0,"""event"",""trial"",""time""
""fullscreenenter"",""0"",""2143""
","
","
","""event"",""trial"",""time""
""fullscreenenter"",""0"",""2143""
","
",null,run_exp/static/audio/clip_27_quiz_all_correct.m4a,null,,,,,<div class='center'><p>Good job! You’re now ready to move on to the real game! Remember this game will be difficult but don't get discouraged and try your best!</p></div>,,,,,,,,,,,,,,,,,,
,html-keyboard-response,86,460592,0.0-52.0-1.0,"""event"",""trial"",""time""
""fullscreenenter"",""0"",""2143""
","
","
","""event"",""trial"",""time""
""fullscreenenter"",""0"",""2143""
","
",692.4,<div class='center'><p>Good job! You’re now ready to move on to the real game! Remember this game will be difficult but don't get discouraged and try your best!</p><p><b>[Press the space bar to continue]</b></p></div>,32,,,,,,,,,,,,,,,,,,,,,,,
,do_welcome,87,464606,0.0-53.0-0.0,"""event"",""trial"",""time""
""fullscreenenter"",""0"",""2143""
","
","
","""event"",""trial"",""time""
""fullscreenenter"",""0"",""2143""
","
",null,,,,,,,,null,,,,,,,,,,,,,,,,,
,do_trial,88,470160,0.0-54.0-0.0,"""event"",""trial"",""time""
""fullscreenenter"",""0"",""2143""
","
","
","""event"",""trial"",""time""
""fullscreenenter"",""0"",""2143""
","
",982.1,,,,,,,,49,"0,0,0",0,countryside,0,probe-135,0.6,0.3,0.1,0,,,,,,,,
,html-keyboard-response,89,471174,0.0-54.0-1.0,"""event"",""trial"",""time""
""fullscreenenter"",""0"",""2143""
","
","
","""event"",""trial"",""time""
""fullscreenenter"",""0"",""2143""
","
",null,<p></p>,null,,,,,,,,,,,,,,,,,,,,,,,
,do_trial,90,476731,0.0-55.0-0.0,"""event"",""trial"",""time""
""fullscreenenter"",""0"",""2143""
","
","
","""event"",""trial"",""time""
""fullscreenenter"",""0"",""2143""
","
",992.9,,,,,,,,51,"1,1,0",0,countryside,1,probe-150,0.581085001,0.278956335,0.065278204,0,,,,,,,,
,html-keyboard-response,91,477738,0.0-55.0-1.0,"""event"",""trial"",""time""
""fullscreenenter"",""0"",""2143""
","
","
","""event"",""trial"",""time""
""fullscreenenter"",""0"",""2143""
","
",null,<p></p>,null,,,,,,,,,,,,,,,,,,,,,,,
,do_trial,92,482569,0.0-56.0-0.0,"""event"",""trial"",""time""
""fullscreenenter"",""0"",""2143""
","
","
","""event"",""trial"",""time""
""fullscreenenter"",""0"",""2143""
","
",269.1,,,,,,,,50,"0,0,0",0,countryside,2,probe-86,0.565347832,0.178001061,0.08193438,0,,,,,,,,
,html-keyboard-response,93,483575,0.0-56.0-1.0,"""event"",""trial"",""time""
""fullscreenenter"",""0"",""2143""
","
","
","""event"",""trial"",""time""
""fullscreenenter"",""0"",""2143""
","
",null,<p></p>,null,,,,,,,,,,,,,,,,,,,,,,,
,do_trial,94,488612,0.0-57.0-0.0,"""event"",""trial"",""time""
""fullscreenenter"",""0"",""2143""
","
","
","""event"",""trial"",""time""
""fullscreenenter"",""0"",""2143""
","
",475.7,,,,,,,,49,"0,0,0",0,countryside,3,probe-137,0.467292872,0.137885494,0.118126556,0,,,,,,,,
,html-keyboard-response,95,489619,0.0-57.0-1.0,"""event"",""trial"",""time""
""fullscreenenter"",""0"",""2143""
","
","
","""event"",""trial"",""time""
""fullscreenenter"",""0"",""2143""
","
",null,<p></p>,null,,,,,,,,,,,,,,,,,,,,,,,
,do_trial,96,494511,0.0-58.0-0.0,"""event"",""trial"",""time""
""fullscreenenter"",""0"",""2143""
","
","
","""event"",""trial"",""time""
""fullscreenenter"",""0"",""2143""
","
",325.6,,,,,,,,49,"0,0,0",0,countryside,4,probe-170,0.567357616,0.314123919,0.140961579,0,,,,,,,,
,html-keyboard-response,97,495517,0.0-58.0-1.0,"""event"",""trial"",""time""
""fullscreenenter"",""0"",""2143""
","
","
","""event"",""trial"",""time""
""fullscreenenter"",""0"",""2143""
","
",null,<p></p>,null,,,,,,,,,,,,,,,,,,,,,,,
,do_trial,98,500379,0.0-59.0-0.0,"""event"",""trial"",""time""
""fullscreenenter"",""0"",""2143""
","
","
","""event"",""trial"",""time""
""fullscreenenter"",""0"",""2143""
","
",302.1,,,,,,,,51,"1,0,0",0,countryside,5,probe-158,0.531227583,0.177628352,0.102453694,0,,,,,,,,
,html-keyboard-response,99,501388,0.0-59.0-1.0,"""event"",""trial"",""time""
""fullscreenenter"",""0"",""2143""
","
","
","""event"",""trial"",""time""
""fullscreenenter"",""0"",""2143""
","
",null,<p></p>,null,,,,,,,,,,,,,,,,,,,,,,,
,do_trial,100,506219,0.0-60.0-0.0,"""event"",""trial"",""time""
""fullscreenenter"",""0"",""2143""
","
","
","""event"",""trial"",""time""
""fullscreenenter"",""0"",""2143""
","
",267.7,,,,,,,,50,"0,0,0",0,countryside,6,probe-149,0.538596735,0.17399435,0.057432305,0,,,,,,,,
,html-keyboard-response,101,507226,0.0-60.0-1.0,"""event"",""trial"",""time""
""fullscreenenter"",""0"",""2143""
","
","
","""event"",""trial"",""time""
""fullscreenenter"",""0"",""2143""
","
",null,<p></p>,null,,,,,,,,,,,,,,,,,,,,,,,
,do_trial,102,512088,0.0-61.0-0.0,"""event"",""trial"",""time""
""fullscreenenter"",""0"",""2143""
","
","
","""event"",""trial"",""time""
""fullscreenenter"",""0"",""2143""
","
",298.3,,,,,,,,51,"1,0,1",0,countryside,7,probe-33,0.695158901,0.163177486,0.124602346,1,,,,,,,,
,html-keyboard-response,103,513095,0.0-61.0-1.0,"""event"",""trial"",""time""
""fullscreenenter"",""0"",""2143""
","
","
","""event"",""trial"",""time""
""fullscreenenter"",""0"",""2143""
","
",null,<p></p>,null,,,,,,,,,,,,,,,,,,,,,,,
,do_trial,104,519633,0.0-62.0-0.0,"""event"",""trial"",""time""
""fullscreenenter"",""0"",""2143""
","
","
","""event"",""trial"",""time""
""fullscreenenter"",""0"",""2143""
","
",1975.3,,,,,,,,51,"1,0,0",0,countryside,8,probe-165,0.616759864,0.154914115,0.068133593,0,,,,,,,,
,html-keyboard-response,105,520644,0.0-62.0-1.0,"""event"",""trial"",""time""
""fullscreenenter"",""0"",""2143""
","
","
","""event"",""trial"",""time""
""fullscreenenter"",""0"",""2143""
","
",null,<p></p>,null,,,,,,,,,,,,,,,,,,,,,,,
,do_trial,106,525519,0.0-63.0-0.0,"""event"",""trial"",""time""
""fullscreenenter"",""0"",""2143""
","
","
","""event"",""trial"",""time""
""fullscreenenter"",""0"",""2143""
","
",307.5,,,,,,,,49,"1,0,0",0,countryside,9,probe-227,0.728610263,0.096607728,0.069875752,1,,,,,,,,
,html-keyboard-response,107,526528,0.0-63.0-1.0,"""event"",""trial"",""time""
""fullscreenenter"",""0"",""2143""
","
","
","""event"",""trial"",""time""
""fullscreenenter"",""0"",""2143""
","
",null,<p></p>,null,,,,,,,,,,,,,,,,,,,,,,,
,do_trial,108,533022,0.0-64.0-0.0,"""event"",""trial"",""time""
""fullscreenenter"",""0"",""2143""
","
","
","""event"",""trial"",""time""
""fullscreenenter"",""0"",""2143""
","
",1927.2,,,,,,,,50,"0,0,0",0,countryside,10,probe-199,0.648010226,0.06788318,0.101963782,0,,,,,,,,
,html-keyboard-response,109,534031,0.0-64.0-1.0,"""event"",""trial"",""time""
""fullscreenenter"",""0"",""2143""
","
","
","""event"",""trial"",""time""
""fullscreenenter"",""0"",""2143""
","
",null,<p></p>,null,,,,,,,,,,,,,,,,,,,,,,,
,do_trial,110,538881,0.0-65.0-0.0,"""event"",""trial"",""time""
""fullscreenenter"",""0"",""2143""
","
","
","""event"",""trial"",""time""
""fullscreenenter"",""0"",""2143""
","
",291.6,,,,,,,,51,"1,0,1",0,countryside,11,probe-88,0.639621806,0.21389172,0.149469591,1,,,,,,,,
,html-keyboard-response,111,539887,0.0-65.0-1.0,"""event"",""trial"",""time""
""fullscreenenter"",""0"",""2143""
","
","
","""event"",""trial"",""time""
""fullscreenenter"",""0"",""2143""
","
",null,<p></p>,null,,,,,,,,,,,,,,,,,,,,,,,
,do_trial,112,545239,0.0-66.0-0.0,"""event"",""trial"",""time""
""fullscreenenter"",""0"",""2143""
","
","
","""event"",""trial"",""time""
""fullscreenenter"",""0"",""2143""
","
",800.5,,,,,,,,51,"1,1,0",0,countryside,12,probe-134,0.602066658,0.274133504,0.135892463,0,,,,,,,,
,html-keyboard-response,113,546244,0.0-66.0-1.0,"""event"",""trial"",""time""
""fullscreenenter"",""0"",""2143""
","
","
","""event"",""trial"",""time""
""fullscreenenter"",""0"",""2143""
","
",null,<p></p>,null,,,,,,,,,,,,,,,,,,,,,,,
,do_trial,114,551235,0.0-67.0-0.0,"""event"",""trial"",""time""
""fullscreenenter"",""0"",""2143""
","
","
","""event"",""trial"",""time""
""fullscreenenter"",""0"",""2143""
","
",442,,,,,,,,49,"1,0,0",0,countryside,13,probe-173,0.505455713,0.117189316,0.071037363,1,,,,,,,,
,html-keyboard-response,115,552245,0.0-67.0-1.0,"""event"",""trial"",""time""
""fullscreenenter"",""0"",""2143""
","
","
","""event"",""trial"",""time""
""fullscreenenter"",""0"",""2143""
","
",null,<p></p>,null,,,,,,,,,,,,,,,,,,,,,,,
,do_trial,116,558541,0.0-68.0-0.0,"""event"",""trial"",""time""
""fullscreenenter"",""0"",""2143""
","
","
","""event"",""trial"",""time""
""fullscreenenter"",""0"",""2143""
","
",1745,,,,,,,,49,"1,0,0",0,countryside,14,probe-47,0.502285347,0.09474074,0.081549356,1,,,,,,,,
,html-keyboard-response,117,559548,0.0-68.0-1.0,"""event"",""trial"",""time""
""fullscreenenter"",""0"",""2143""
","
","
","""event"",""trial"",""time""
""fullscreenenter"",""0"",""2143""
","
",null,<p></p>,null,,,,,,,,,,,,,,,,,,,,,,,
,do_trial,118,565818,0.0-69.0-0.0,"""event"",""trial"",""time""
""fullscreenenter"",""0"",""2143""
","
","
","""event"",""trial"",""time""
""fullscreenenter"",""0"",""2143""
","
",1705.9,,,,,,,,51,"0,0,0",0,countryside,15,probe-60,0.470024799,0.172586806,0.139286412,0,,,,,,,,
,html-keyboard-response,119,566824,0.0-69.0-1.0,"""event"",""trial"",""time""
""fullscreenenter"",""0"",""2143""
","
","
","""event"",""trial"",""time""
""fullscreenenter"",""0"",""2143""
","
",null,<p></p>,null,,,,,,,,,,,,,,,,,,,,,,,
,do_trial,120,571641,0.0-70.0-0.0,"""event"",""trial"",""time""
""fullscreenenter"",""0"",""2143""
","
","
","""event"",""trial"",""time""
""fullscreenenter"",""0"",""2143""
","
",252.5,,,,,,,,49,"0,1,1",0,countryside,16,probe-143,0.594713186,0.289058995,0.154183345,0,,,,,,,,
,html-keyboard-response,121,572650,0.0-70.0-1.0,"""event"",""trial"",""time""
""fullscreenenter"",""0"",""2143""
","
","
","""event"",""trial"",""time""
""fullscreenenter"",""0"",""2143""
","
",null,<p></p>,null,,,,,,,,,,,,,,,,,,,,,,,
,do_trial,122,577450,0.0-71.0-0.0,"""event"",""trial"",""time""
""fullscreenenter"",""0"",""2143""
","
","
","""event"",""trial"",""time""
""fullscreenenter"",""0"",""2143""
","
",234.8,,,,,,,,50,"1,0,0",0,countryside,17,probe-74,0.541527942,0.261640481,0.228727401,0,,,,,,,,
,html-keyboard-response,123,578457,0.0-71.0-1.0,"""event"",""trial"",""time""
""fullscreenenter"",""0"",""2143""
","
","
","""event"",""trial"",""time""
""fullscreenenter"",""0"",""2143""
","
",null,<p></p>,null,,,,,,,,,,,,,,,,,,,,,,,
,do_trial,124,583527,0.0-72.0-0.0,"""event"",""trial"",""time""
""fullscreenenter"",""0"",""2143""
","
","
","""event"",""trial"",""time""
""fullscreenenter"",""0"",""2143""
","
",509.4,,,,,,,,49,"0,0,0",0,countryside,18,probe-159,0.647999772,0.193538334,0.106792776,0,,,,,,,,
,html-keyboard-response,125,584538,0.0-72.0-1.0,"""event"",""trial"",""time""
""fullscreenenter"",""0"",""2143""
","
","
","""event"",""trial"",""time""
""fullscreenenter"",""0"",""2143""
","
",null,<p></p>,null,,,,,,,,,,,,,,,,,,,,,,,
,do_trial,126,590596,0.0-73.0-0.0,"""event"",""trial"",""time""
""fullscreenenter"",""0"",""2143""
","
","
","""event"",""trial"",""time""
""fullscreenenter"",""0"",""2143""
","
",null,,,,,,,,null,"1,0,0",0,countryside,19,probe-140,0.592224699,0.287272367,0.12139055,,,,,,,,,
,html-keyboard-response,127,591604,0.0-73.0-1.0,"""event"",""trial"",""time""
""fullscreenenter"",""0"",""2143""
","
","
","""event"",""trial"",""time""
""fullscreenenter"",""0"",""2143""
","
",null,<p></p>,null,,,,,,,,,,,,,,,,,,,,,,,
,do_trial,128,596845,0.0-74.0-0.0,"""event"",""trial"",""time""
""fullscreenenter"",""0"",""2143""
","
","
","""event"",""trial"",""time""
""fullscreenenter"",""0"",""2143""
","
",675.5,,,,,,,,51,"0,0,0",0,countryside,20,probe-66,0.582756234,0.210993289,0.100846702,0,,,,,,,,
,html-keyboard-response,129,597853,0.0-74.0-1.0,"""event"",""trial"",""time""
""fullscreenenter"",""0"",""2143""
","
","
","""event"",""trial"",""time""
""fullscreenenter"",""0"",""2143""
","
",null,<p></p>,null,,,,,,,,,,,,,,,,,,,,,,,
,do_trial,130,602636,0.0-75.0-0.0,"""event"",""trial"",""time""
""fullscreenenter"",""0"",""2143""
","
","
","""event"",""trial"",""time""
""fullscreenenter"",""0"",""2143""
","
",231.4,,,,,,,,49,"0,1,0",0,countryside,21,probe-109,0.619134905,0.13789683,0.099645391,0,,,,,,,,
,html-keyboard-response,131,603641,0.0-75.0-1.0,"""event"",""trial"",""time""
""fullscreenenter"",""0"",""2143""
","
","
","""event"",""trial"",""time""
""fullscreenenter"",""0"",""2143""
","
",null,<p></p>,null,,,,,,,,,,,,,,,,,,,,,,,
,do_trial,132,608478,0.0-76.0-0.0,"""event"",""trial"",""time""
""fullscreenenter"",""0"",""2143""
","
","
","""event"",""trial"",""time""
""fullscreenenter"",""0"",""2143""
","
",269,,,,,,,,49,"1,0,0",0,countryside,22,probe-145,0.621816353,0.249013624,0.072305266,1,,,,,,,,
,html-keyboard-response,133,609485,0.0-76.0-1.0,"""event"",""trial"",""time""
""fullscreenenter"",""0"",""2143""
","
","
","""event"",""trial"",""time""
""fullscreenenter"",""0"",""2143""
","
",null,<p></p>,null,,,,,,,,,,,,,,,,,,,,,,,
,do_trial,134,615276,0.0-77.0-0.0,"""event"",""trial"",""time""
""fullscreenenter"",""0"",""2143""
","
","
","""event"",""trial"",""time""
""fullscreenenter"",""0"",""2143""
","
",1224.9,,,,,,,,49,"0,0,0",0,countryside,23,probe-211,0.539273382,0.304932242,0.103050191,0,,,,,,,,
,html-keyboard-response,135,616284,0.0-77.0-1.0,"""event"",""trial"",""time""
""fullscreenenter"",""0"",""2143""
","
","
","""event"",""trial"",""time""
""fullscreenenter"",""0"",""2143""
","
",null,<p></p>,null,,,,,,,,,,,,,,,,,,,,,,,
,do_trial,136,621479,0.0-78.0-0.0,"""event"",""trial"",""time""
""fullscreenenter"",""0"",""2143""
","
","
","""event"",""trial"",""time""
""fullscreenenter"",""0"",""2143""
","
",630,,,,,,,,51,"1,1,0",0,countryside,24,probe-38,0.706981483,0.238828506,0.153345713,0,,,,,,,,
,html-keyboard-response,137,622484,0.0-78.0-1.0,"""event"",""trial"",""time""
""fullscreenenter"",""0"",""2143""
","
","
","""event"",""trial"",""time""
""fullscreenenter"",""0"",""2143""
","
",null,<p></p>,null,,,,,,,,,,,,,,,,,,,,,,,
,do_trial,138,627460,0.0-79.0-0.0,"""event"",""trial"",""time""
""fullscreenenter"",""0"",""2143""
","
","
","""event"",""trial"",""time""
""fullscreenenter"",""0"",""2143""
","
",408.8,,,,,,,,49,"0,0,0",0,countryside,25,probe-156,0.583978357,0.096531918,0.282213536,0,,,,,,,,
,html-keyboard-response,139,628465,0.0-79.0-1.0,"""event"",""trial"",""time""
""fullscreenenter"",""0"",""2143""
","
","
","""event"",""trial"",""time""
""fullscreenenter"",""0"",""2143""
","
",null,<p></p>,null,,,,,,,,,,,,,,,,,,,,,,,
,do_trial,140,633267,0.0-80.0-0.0,"""event"",""trial"",""time""
""fullscreenenter"",""0"",""2143""
","
","
","""event"",""trial"",""time""
""fullscreenenter"",""0"",""2143""
","
",241,,,,,,,,50,"1,0,1",0,countryside,26,probe-167,0.568768569,0.185371057,0.363573498,0,,,,,,,,
,html-keyboard-response,141,634274,0.0-80.0-1.0,"""event"",""trial"",""time""
""fullscreenenter"",""0"",""2143""
","
","
","""event"",""trial"",""time""
""fullscreenenter"",""0"",""2143""
","
",null,<p></p>,null,,,,,,,,,,,,,,,,,,,,,,,
,do_trial,142,638843,0.0-81.0-0.0,"""event"",""trial"",""time""
""fullscreenenter"",""0"",""2143""
","
","
","""event"",""trial"",""time""
""fullscreenenter"",""0"",""2143""
","
",0.099999994,,,,,,,,49,"1,0,0",0,countryside,27,probe-198,0.626372008,0.160954769,0.330283516,1,,,,,,,,
,html-keyboard-response,143,639852,0.0-81.0-1.0,"""event"",""trial"",""time""
""fullscreenenter"",""0"",""2143""
","
","
","""event"",""trial"",""time""
""fullscreenenter"",""0"",""2143""
","
",null,<p></p>,null,,,,,,,,,,,,,,,,,,,,,,,
,do_trial,144,644697,0.0-82.0-0.0,"""event"",""trial"",""time""
""fullscreenenter"",""0"",""2143""
","
","
","""event"",""trial"",""time""
""fullscreenenter"",""0"",""2143""
","
",289.8,,,,,,,,49,"1,1,0",0,countryside,28,probe-223,0.643323058,0.277054337,0.163156943,1,,,,,,,,
,html-keyboard-response,145,645705,0.0-82.0-1.0,"""event"",""trial"",""time""
""fullscreenenter"",""0"",""2143""
","
","
","""event"",""trial"",""time""
""fullscreenenter"",""0"",""2143""
","
",null,<p></p>,null,,,,,,,,,,,,,,,,,,,,,,,
,do_trial,146,650486,0.0-83.0-0.0,"""event"",""trial"",""time""
""fullscreenenter"",""0"",""2143""
","
","
","""event"",""trial"",""time""
""fullscreenenter"",""0"",""2143""
","
",212.4,,,,,,,,49,"1,0,0",0,countryside,29,probe-28,0.760614511,0.223391495,0.05968958,1,,,,,,,,
,html-keyboard-response,147,651490,0.0-83.0-1.0,"""event"",""trial"",""time""
""fullscreenenter"",""0"",""2143""
","
","
","""event"",""trial"",""time""
""fullscreenenter"",""0"",""2143""
","
",null,<p></p>,null,,,,,,,,,,,,,,,,,,,,,,,
,do_bye,148,652997,0.0-84.0-0.0,"""event"",""trial"",""time""
""fullscreenenter"",""0"",""2143""
","
","
","""event"",""trial"",""time""
""fullscreenenter"",""0"",""2143""
","
",null,,,,,,,,null,,,,,,,,,,,,,,,,,
,break,149,655683,0.0-84.0-1.0,"""event"",""trial"",""time""
""fullscreenenter"",""0"",""2143""
","
","
","""event"",""trial"",""time""
""fullscreenenter"",""0"",""2143""
","
",2685.1,"<div class='center'><p>Time to take a quick break! You have 2 minutes to rest, but you can move on sooner if you'd like.</p><p> Press the <b>space bar</b> to continue.</p></div>",32,,,,,,,,,,,,,,,,,,,,,,,
,do_travel,150,664701,0.0-85.0-0.0,"""event"",""trial"",""time""
""fullscreenenter"",""0"",""2143""
","
","
","""event"",""trial"",""time""
""fullscreenenter"",""0"",""2143""
","
",null,,,,,,,,null,,,,,,,,,,,,,,,,,
,do_welcome,151,668706,0.0-85.0-1.0,"""event"",""trial"",""time""
""fullscreenenter"",""0"",""2143""
","
","
","""event"",""trial"",""time""
""fullscreenenter"",""0"",""2143""
","
",null,,,,,,,,null,,,,,,,,,,,,,,,,,
,do_trial,152,674167,0.0-86.0-0.0,"""event"",""trial"",""time""
""fullscreenenter"",""0"",""2143""
","
","
","""event"",""trial"",""time""
""fullscreenenter"",""0"",""2143""
","
",897.4,,,,,,,,51,"1,0,0",1,forest,30,probe-23,1,0.322561395,0.14411075,0,,,,,,,,
,html-keyboard-response,153,675172,0.0-86.0-1.0,"""event"",""trial"",""time""
""fullscreenenter"",""0"",""2143""
","
","
","""event"",""trial"",""time""
""fullscreenenter"",""0"",""2143""
","
",null,<p></p>,null,,,,,,,,,,,,,,,,,,,,,,,
,do_trial,154,680008,0.0-87.0-0.0,"""event"",""trial"",""time""
""fullscreenenter"",""0"",""2143""
","
","
","""event"",""trial"",""time""
""fullscreenenter"",""0"",""2143""
","
",275.2,,,,,,,,51,"1,0,0",1,forest,31,probe-108,1,0.323845438,0.08439985,0,,,,,,,,
,html-keyboard-response,155,681017,0.0-87.0-1.0,"""event"",""trial"",""time""
""fullscreenenter"",""0"",""2143""
","
","
","""event"",""trial"",""time""
""fullscreenenter"",""0"",""2143""
","
",null,<p></p>,null,,,,,,,,,,,,,,,,,,,,,,,
,do_trial,156,685990,0.0-88.0-0.0,"""event"",""trial"",""time""
""fullscreenenter"",""0"",""2143""
","
","
","""event"",""trial"",""time""
""fullscreenenter"",""0"",""2143""
","
",414.2,,,,,,,,50,"1,0,0",1,forest,32,probe-166,1,0.274450848,0.061959406,0,,,,,,,,
,html-keyboard-response,157,686993,0.0-88.0-1.0,"""event"",""trial"",""time""
""fullscreenenter"",""0"",""2143""
","
","
","""event"",""trial"",""time""
""fullscreenenter"",""0"",""2143""
","
",null,<p></p>,null,,,,,,,,,,,,,,,,,,,,,,,
,do_trial,158,691804,0.0-89.0-0.0,"""event"",""trial"",""time""
""fullscreenenter"",""0"",""2143""
","
","
","""event"",""trial"",""time""
""fullscreenenter"",""0"",""2143""
","
",237.7,,,,,,,,49,"1,0,0",1,forest,33,probe-96,0.744991774,0.149675145,0.180751847,1,,,,,,,,
,html-keyboard-response,159,692811,0.0-89.0-1.0,"""event"",""trial"",""time""
""fullscreenenter"",""0"",""2143""
","
","
","""event"",""trial"",""time""
""fullscreenenter"",""0"",""2143""
","
",null,<p></p>,null,,,,,,,,,,,,,,,,,,,,,,,
,do_trial,160,697607,0.0-90.0-0.0,"""event"",""trial"",""time""
""fullscreenenter"",""0"",""2143""
","
","
","""event"",""trial"",""time""
""fullscreenenter"",""0"",""2143""
","
",240.8,,,,,,,,49,"1,0,0",1,forest,34,probe-153,0.639763709,0.234340278,0.088987658,1,,,,,,,,
,html-keyboard-response,161,698615,0.0-90.0-1.0,"""event"",""trial"",""time""
""fullscreenenter"",""0"",""2143""
","
","
","""event"",""trial"",""time""
""fullscreenenter"",""0"",""2143""
","
",null,<p></p>,null,,,,,,,,,,,,,,,,,,,,,,,
,do_trial,162,703387,0.0-91.0-0.0,"""event"",""trial"",""time""
""fullscreenenter"",""0"",""2143""
","
","
","""event"",""trial"",""time""
""fullscreenenter"",""0"",""2143""
","
",208.6,,,,,,,,49,"0,1,0",1,forest,35,probe-102,0.626351446,0.426404118,0.075431058,0,,,,,,,,
,html-keyboard-response,163,704391,0.0-91.0-1.0,"""event"",""trial"",""time""
""fullscreenenter"",""0"",""2143""
","
","
","""event"",""trial"",""time""
""fullscreenenter"",""0"",""2143""
","
",null,<p></p>,null,,,,,,,,,,,,,,,,,,,,,,,
,do_trial,164,708955,0.0-92.0-0.0,"""event"",""trial"",""time""
""fullscreenenter"",""0"",""2143""
","
","
","""event"",""trial"",""time""
""fullscreenenter"",""0"",""2143""
","
",0.200000018,,,,,,,,51,"0,0,0",1,forest,36,probe-01,0.45842557,0.243953425,0.064678944,0,,,,,,,,
,html-keyboard-response,165,709962,0.0-92.0-1.0,"""event"",""trial"",""time""
""fullscreenenter"",""0"",""2143""
","
","
","""event"",""trial"",""time""
""fullscreenenter"",""0"",""2143""
","
",null,<p></p>,null,,,,,,,,,,,,,,,,,,,,,,,
,do_trial,166,714867,0.0-93.0-0.0,"""event"",""trial"",""time""
""fullscreenenter"",""0"",""2143""
","
","
","""event"",""trial"",""time""
""fullscreenenter"",""0"",""2143""
","
",338,,,,,,,,50,"1,1,1",1,forest,37,probe-27,0.582922839,0.314389082,0.155015964,1,,,,,,,,
,html-keyboard-response,167,715874,0.0-93.0-1.0,"""event"",""trial"",""time""
""fullscreenenter"",""0"",""2143""
","
","
","""event"",""trial"",""time""
""fullscreenenter"",""0"",""2143""
","
",null,<p></p>,null,,,,,,,,,,,,,,,,,,,,,,,
,do_trial,168,721177,0.0-94.0-0.0,"""event"",""trial"",""time""
""fullscreenenter"",""0"",""2143""
","
","
","""event"",""trial"",""time""
""fullscreenenter"",""0"",""2143""
","
",740.4,,,,,,,,49,"1,0,0",1,forest,38,probe-216,0.660739179,0.318619871,0.147509195,1,,,,,,,,
,html-keyboard-response,169,722184,0.0-94.0-1.0,"""event"",""trial"",""time""
""fullscreenenter"",""0"",""2143""
","
","
","""event"",""trial"",""time""
""fullscreenenter"",""0"",""2143""
","
",null,<p></p>,null,,,,,,,,,,,,,,,,,,,,,,,
,do_trial,170,726983,0.0-95.0-0.0,"""event"",""trial"",""time""
""fullscreenenter"",""0"",""2143""
","
","
","""event"",""trial"",""time""
""fullscreenenter"",""0"",""2143""
","
",239.4,,,,,,,,50,"1,0,0",1,forest,39,probe-07,0.642206836,0.278543595,0.234820878,0,,,,,,,,
,html-keyboard-response,171,727991,0.0-95.0-1.0,"""event"",""trial"",""time""
""fullscreenenter"",""0"",""2143""
","
","
","""event"",""trial"",""time""
""fullscreenenter"",""0"",""2143""
","
",null,<p></p>,null,,,,,,,,,,,,,,,,,,,,,,,
,do_trial,172,732792,0.0-96.0-0.0,"""event"",""trial"",""time""
""fullscreenenter"",""0"",""2143""
","
","
","""event"",""trial"",""time""
""fullscreenenter"",""0"",""2143""
","
",244.1,,,,,,,,50,"0,0,0",1,forest,40,probe-110,0.534404047,0.27729231,0.228471828,0,,,,,,,,
,html-keyboard-response,173,733798,0.0-96.0-1.0,"""event"",""trial"",""time""
""fullscreenenter"",""0"",""2143""
","
","
","""event"",""trial"",""time""
""fullscreenenter"",""0"",""2143""
","
",null,<p></p>,null,,,,,,,,,,,,,,,,,,,,,,,
,do_trial,174,738586,0.0-97.0-0.0,"""event"",""trial"",""time""
""fullscreenenter"",""0"",""2143""
","
","
","""event"",""trial"",""time""
""fullscreenenter"",""0"",""2143""
","
",233.2,,,,,,,,49,"1,0,1",1,forest,41,probe-103,0.596815679,0.255309421,0.35544563,1,,,,,,,,
,html-keyboard-response,175,739591,0.0-97.0-1.0,"""event"",""trial"",""time""
""fullscreenenter"",""0"",""2143""
","
","
","""event"",""trial"",""time""
""fullscreenenter"",""0"",""2143""
","
",null,<p></p>,null,,,,,,,,,,,,,,,,,,,,,,,
,do_trial,176,744419,0.0-98.0-0.0,"""event"",""trial"",""time""
""fullscreenenter"",""0"",""2143""
","
","
","""event"",""trial"",""time""
""fullscreenenter"",""0"",""2143""
","
",266,,,,,,,,49,"0,0,0",1,forest,42,probe-119,0.386581059,0.44720152,0.448060169,0,,,,,,,,
,html-keyboard-response,177,745428,0.0-98.0-1.0,"""event"",""trial"",""time""
""fullscreenenter"",""0"",""2143""
","
","
","""event"",""trial"",""time""
""fullscreenenter"",""0"",""2143""
","
",null,<p></p>,null,,,,,,,,,,,,,,,,,,,,,,,
,do_trial,178,750178,0.0-99.0-0.0,"""event"",""trial"",""time""
""fullscreenenter"",""0"",""2143""
","
","
","""event"",""trial"",""time""
""fullscreenenter"",""0"",""2143""
","
",193.6,,,,,,,,49,"0,1,0",1,forest,43,probe-152,0.333007488,0.523152973,0.450990028,0,,,,,,,,
,html-keyboard-response,179,751184,0.0-99.0-1.0,"""event"",""trial"",""time""
""fullscreenenter"",""0"",""2143""
","
","
","""event"",""trial"",""time""
""fullscreenenter"",""0"",""2143""
","
",null,<p></p>,null,,,,,,,,,,,,,,,,,,,,,,,
,do_trial,180,756131,0.0-100.0-0.0,"""event"",""trial"",""time""
""fullscreenenter"",""0"",""2143""
","
","
","""event"",""trial"",""time""
""fullscreenenter"",""0"",""2143""
","
",392.9,,,,,,,,50,"0,1,0",1,forest,44,probe-112,0.308589971,0.535088186,0.263137042,1,,,,,,,,
,html-keyboard-response,181,757136,0.0-100.0-1.0,"""event"",""trial"",""time""
""fullscreenenter"",""0"",""2143""
","
","
","""event"",""trial"",""time""
""fullscreenenter"",""0"",""2143""
","
",null,<p></p>,null,,,,,,,,,,,,,,,,,,,,,,,
,do_trial,182,762030,0.0-101.0-0.0,"""event"",""trial"",""time""
""fullscreenenter"",""0"",""2143""
","
","
","""event"",""trial"",""time""
""fullscreenenter"",""0"",""2143""
","
",322.3,,,,,,,,50,"1,0,0",1,forest,45,probe-79,0.208224717,0.491021223,0.430954296,0,,,,,,,,
,html-keyboard-response,183,763040,0.0-101.0-1.0,"""event"",""trial"",""time""
""fullscreenenter"",""0"",""2143""
","
","
","""event"",""trial"",""time""
""fullscreenenter"",""0"",""2143""
","
",null,<p></p>,null,,,,,,,,,,,,,,,,,,,,,,,
,do_trial,184,767893,0.0-102.0-0.0,"""event"",""trial"",""time""
""fullscreenenter"",""0"",""2143""
","
","
","""event"",""trial"",""time""
""fullscreenenter"",""0"",""2143""
","
",295.2,,,,,,,,49,"0,0,1",1,forest,46,probe-171,0.10262534,0.54315417,0.334170262,0,,,,,,,,
,html-keyboard-response,185,768901,0.0-102.0-1.0,"""event"",""trial"",""time""
""fullscreenenter"",""0"",""2143""
","
","
","""event"",""trial"",""time""
""fullscreenenter"",""0"",""2143""
","
",null,<p></p>,null,,,,,,,,,,,,,,,,,,,,,,,
,do_trial,186,773753,0.0-103.0-0.0,"""event"",""trial"",""time""
""fullscreenenter"",""0"",""2143""
","
","
","""event"",""trial"",""time""
""fullscreenenter"",""0"",""2143""
","
",290,,,,,,,,51,"0,1,0",1,forest,47,probe-81,0.094827008,0.582474354,0.413850747,0,,,,,,,,
,html-keyboard-response,187,774761,0.0-103.0-1.0,"""event"",""trial"",""time""
""fullscreenenter"",""0"",""2143""
","
","
","""event"",""trial"",""time""
""fullscreenenter"",""0"",""2143""
","
",null,<p></p>,null,,,,,,,,,,,,,,,,,,,,,,,
,do_trial,188,779812,0.0-104.0-0.0,"""event"",""trial"",""time""
""fullscreenenter"",""0"",""2143""
","
","
","""event"",""trial"",""time""
""fullscreenenter"",""0"",""2143""
","
",495.1,,,,,,,,50,"1,0,0",1,forest,48,probe-126,0.123455374,0.624485993,0.33544529,0,,,,,,,,
,html-keyboard-response,189,780818,0.0-104.0-1.0,"""event"",""trial"",""time""
""fullscreenenter"",""0"",""2143""
","
","
","""event"",""trial"",""time""
""fullscreenenter"",""0"",""2143""
","
",null,<p></p>,null,,,,,,,,,,,,,,,,,,,,,,,
,do_trial,190,785608,0.0-105.0-0.0,"""event"",""trial"",""time""
""fullscreenenter"",""0"",""2143""
","
","
","""event"",""trial"",""time""
""fullscreenenter"",""0"",""2143""
","
",225.6,,,,,,,,49,"0,0,1",1,forest,49,probe-97,0.113169465,0.581002113,0.245451283,0,,,,,,,,
,html-keyboard-response,191,786616,0.0-105.0-1.0,"""event"",""trial"",""time""
""fullscreenenter"",""0"",""2143""
","
","
","""event"",""trial"",""time""
""fullscreenenter"",""0"",""2143""
","
",null,<p></p>,null,,,,,,,,,,,,,,,,,,,,,,,
,do_trial,192,791396,0.0-106.0-0.0,"""event"",""trial"",""time""
""fullscreenenter"",""0"",""2143""
","
","
","""event"",""trial"",""time""
""fullscreenenter"",""0"",""2143""
","
",219.3,,,,,,,,49,"0,0,0",1,forest,50,probe-128,0.152491853,0.621192472,0.224646059,0,,,,,,,,
,html-keyboard-response,193,792403,0.0-106.0-1.0,"""event"",""trial"",""time""
""fullscreenenter"",""0"",""2143""
","
","
","""event"",""trial"",""time""
""fullscreenenter"",""0"",""2143""
","
",null,<p></p>,null,,,,,,,,,,,,,,,,,,,,,,,
,do_trial,194,797317,0.0-107.0-0.0,"""event"",""trial"",""time""
""fullscreenenter"",""0"",""2143""
","
","
","""event"",""trial"",""time""
""fullscreenenter"",""0"",""2143""
","
",348,,,,,,,,49,"0,0,0",1,forest,51,probe-36,0.128531449,0.526551209,0.349620944,0,,,,,,,,
,html-keyboard-response,195,798325,0.0-107.0-1.0,"""event"",""trial"",""time""
""fullscreenenter"",""0"",""2143""
","
","
","""event"",""trial"",""time""
""fullscreenenter"",""0"",""2143""
","
",null,<p></p>,null,,,,,,,,,,,,,,,,,,,,,,,
,do_trial,196,803838,0.0-108.0-0.0,"""event"",""trial"",""time""
""fullscreenenter"",""0"",""2143""
","
","
","""event"",""trial"",""time""
""fullscreenenter"",""0"",""2143""
","
",955.2,,,,,,,,49,"0,1,1",1,forest,52,probe-133,0.147734644,0.567602207,0.486434954,0,,,,,,,,
,html-keyboard-response,197,804846,0.0-108.0-1.0,"""event"",""trial"",""time""
""fullscreenenter"",""0"",""2143""
","
","
","""event"",""trial"",""time""
""fullscreenenter"",""0"",""2143""
","
",null,<p></p>,null,,,,,,,,,,,,,,,,,,,,,,,
,do_trial,198,809659,0.0-109.0-0.0,"""event"",""trial"",""time""
""fullscreenenter"",""0"",""2143""
","
","
","""event"",""trial"",""time""
""fullscreenenter"",""0"",""2143""
","
",242.8,,,,,,,,50,"1,0,1",1,forest,53,probe-69,0.188195589,0.631284221,0.586252456,0,,,,,,,,
,html-keyboard-response,199,810663,0.0-109.0-1.0,"""event"",""trial"",""time""
""fullscreenenter"",""0"",""2143""
","
","
","""event"",""trial"",""time""
""fullscreenenter"",""0"",""2143""
","
",null,<p></p>,null,,,,,,,,,,,,,,,,,,,,,,,
,do_trial,200,815533,0.0-110.0-0.0,"""event"",""trial"",""time""
""fullscreenenter"",""0"",""2143""
","
","
","""event"",""trial"",""time""
""fullscreenenter"",""0"",""2143""
","
",312.6,,,,,,,,51,"0,0,0",1,forest,54,probe-98,0.166874627,0.552616611,0.465515538,0,,,,,,,,
,html-keyboard-response,201,816542,0.0-110.0-1.0,"""event"",""trial"",""time""
""fullscreenenter"",""0"",""2143""
","
","
","""event"",""trial"",""time""
""fullscreenenter"",""0"",""2143""
","
",null,<p></p>,null,,,,,,,,,,,,,,,,,,,,,,,
,do_trial,202,821186,0.0-111.0-0.0,"""event"",""trial"",""time""
""fullscreenenter"",""0"",""2143""
","
","
","""event"",""trial"",""time""
""fullscreenenter"",""0"",""2143""
","
",89.69999999,,,,,,,,50,"0,1,1",1,forest,55,probe-174,0.107047811,0.386057107,0.452193863,1,,,,,,,,
,html-keyboard-response,203,822193,0.0-111.0-1.0,"""event"",""trial"",""time""
""fullscreenenter"",""0"",""2143""
","
","
","""event"",""trial"",""time""
""fullscreenenter"",""0"",""2143""
","
",null,<p></p>,null,,,,,,,,,,,,,,,,,,,,,,,
,do_trial,204,827010,0.0-112.0-0.0,"""event"",""trial"",""time""
""fullscreenenter"",""0"",""2143""
","
","
","""event"",""trial"",""time""
""fullscreenenter"",""0"",""2143""
","
",252.2,,,,,,,,50,"0,0,1",1,forest,56,probe-03,0.112431383,0.629127056,0.319655746,0,,,,,,,,
,html-keyboard-response,205,828018,0.0-112.0-1.0,"""event"",""trial"",""time""
""fullscreenenter"",""0"",""2143""
","
","
","""event"",""trial"",""time""
""fullscreenenter"",""0"",""2143""
","
",null,<p></p>,null,,,,,,,,,,,,,,,,,,,,,,,
,do_trial,206,832779,0.0-113.0-0.0,"""event"",""trial"",""time""
""fullscreenenter"",""0"",""2143""
","
","
","""event"",""trial"",""time""
""fullscreenenter"",""0"",""2143""
","
",210.6,,,,,,,,49,"0,1,0",1,forest,57,probe-30,0.071751804,0.545603696,0.234440874,0,,,,,,,,
,html-keyboard-response,207,833789,0.0-113.0-1.0,"""event"",""trial"",""time""
""fullscreenenter"",""0"",""2143""
","
","
","""event"",""trial"",""time""
""fullscreenenter"",""0"",""2143""
","
",null,<p></p>,null,,,,,,,,,,,,,,,,,,,,,,,
,do_trial,208,838686,0.0-114.0-0.0,"""event"",""trial"",""time""
""fullscreenenter"",""0"",""2143""
","
","
","""event"",""trial"",""time""
""fullscreenenter"",""0"",""2143""
","
",338.2,,,,,,,,49,"0,0,0",1,forest,58,probe-228,0.183285011,0.446742152,0.116347468,0,,,,,,,,
,html-keyboard-response,209,839694,0.0-114.0-1.0,"""event"",""trial"",""time""
""fullscreenenter"",""0"",""2143""
","
","
","""event"",""trial"",""time""
""fullscreenenter"",""0"",""2143""
","
",null,<p></p>,null,,,,,,,,,,,,,,,,,,,,,,,
,do_trial,210,844477,0.0-115.0-0.0,"""event"",""trial"",""time""
""fullscreenenter"",""0"",""2143""
","
","
","""event"",""trial"",""time""
""fullscreenenter"",""0"",""2143""
","
",223.3,,,,,,,,50,"0,0,0",1,forest,59,probe-58,0.112519808,0.573377007,0.145931797,0,,,,,,,,
,html-keyboard-response,211,845485,0.0-115.0-1.0,"""event"",""trial"",""time""
""fullscreenenter"",""0"",""2143""
","
","
","""event"",""trial"",""time""
""fullscreenenter"",""0"",""2143""
","
",null,<p></p>,null,,,,,,,,,,,,,,,,,,,,,,,
,do_trial,212,850442,0.0-116.0-0.0,"""event"",""trial"",""time""
""fullscreenenter"",""0"",""2143""
","
","
","""event"",""trial"",""time""
""fullscreenenter"",""0"",""2143""
","
",405.6,,,,,,,,50,"0,1,0",1,forest,60,probe-80,0.217189353,0.548550608,0.121150291,1,,,,,,,,
,html-keyboard-response,213,851447,0.0-116.0-1.0,"""event"",""trial"",""time""
""fullscreenenter"",""0"",""2143""
","
","
","""event"",""trial"",""time""
""fullscreenenter"",""0"",""2143""
","
",null,<p></p>,null,,,,,,,,,,,,,,,,,,,,,,,
,do_trial,214,856312,0.0-117.0-0.0,"""event"",""trial"",""time""
""fullscreenenter"",""0"",""2143""
","
","
","""event"",""trial"",""time""
""fullscreenenter"",""0"",""2143""
","
",291.7,,,,,,,,50,"0,0,1",1,forest,61,probe-163,0.094202325,0.472523599,0.236813085,0,,,,,,,,
,html-keyboard-response,215,857321,0.0-117.0-1.0,"""event"",""trial"",""time""
""fullscreenenter"",""0"",""2143""
","
","
","""event"",""trial"",""time""
""fullscreenenter"",""0"",""2143""
","
",null,<p></p>,null,,,,,,,,,,,,,,,,,,,,,,,
,do_trial,216,862125,0.0-118.0-0.0,"""event"",""trial"",""time""
""fullscreenenter"",""0"",""2143""
","
","
","""event"",""trial"",""time""
""fullscreenenter"",""0"",""2143""
","
",250.6,,,,,,,,50,"1,1,1",1,forest,62,probe-26,0.149797977,0.540124174,0.228753571,1,,,,,,,,
,html-keyboard-response,217,863130,0.0-118.0-1.0,"""event"",""trial"",""time""
""fullscreenenter"",""0"",""2143""
","
","
","""event"",""trial"",""time""
""fullscreenenter"",""0"",""2143""
","
",null,<p></p>,null,,,,,,,,,,,,,,,,,,,,,,,
,do_trial,218,868057,0.0-119.0-0.0,"""event"",""trial"",""time""
""fullscreenenter"",""0"",""2143""
","
","
","""event"",""trial"",""time""
""fullscreenenter"",""0"",""2143""
","
",362.7,,,,,,,,50,"0,0,0",1,forest,63,probe-83,0.197979323,0.428735825,0.215746983,0,,,,,,,,
,html-keyboard-response,219,869063,0.0-119.0-1.0,"""event"",""trial"",""time""
""fullscreenenter"",""0"",""2143""
","
","
","""event"",""trial"",""time""
""fullscreenenter"",""0"",""2143""
","
",null,<p></p>,null,,,,,,,,,,,,,,,,,,,,,,,
,do_trial,220,873672,0.0-120.0-0.0,"""event"",""trial"",""time""
""fullscreenenter"",""0"",""2143""
","
","
","""event"",""trial"",""time""
""fullscreenenter"",""0"",""2143""
","
",50.69999999,,,,,,,,50,"1,0,0",1,forest,64,probe-172,0.292363342,0.589533015,0.294032291,0,,,,,,,,
,html-keyboard-response,221,874680,0.0-120.0-1.0,"""event"",""trial"",""time""
""fullscreenenter"",""0"",""2143""
","
","
","""event"",""trial"",""time""
""fullscreenenter"",""0"",""2143""
","
",null,<p></p>,null,,,,,,,,,,,,,,,,,,,,,,,
,do_trial,222,879592,0.0-121.0-0.0,"""event"",""trial"",""time""
""fullscreenenter"",""0"",""2143""
","
","
","""event"",""trial"",""time""
""fullscreenenter"",""0"",""2143""
","
",350.3,,,,,,,,50,"0,1,0",1,forest,65,probe-64,0.345519989,0.599588406,0.223516446,1,,,,,,,,
,html-keyboard-response,223,880597,0.0-121.0-1.0,"""event"",""trial"",""time""
""fullscreenenter"",""0"",""2143""
","
","
","""event"",""trial"",""time""
""fullscreenenter"",""0"",""2143""
","
",null,<p></p>,null,,,,,,,,,,,,,,,,,,,,,,,
,do_trial,224,885416,0.0-122.0-0.0,"""event"",""trial"",""time""
""fullscreenenter"",""0"",""2143""
","
","
","""event"",""trial"",""time""
""fullscreenenter"",""0"",""2143""
","
",254.4,,,,,,,,50,"0,0,1",1,forest,66,probe-131,0.055501907,0.528400384,0.336383079,0,,,,,,,,
,html-keyboard-response,225,886423,0.0-122.0-1.0,"""event"",""trial"",""time""
""fullscreenenter"",""0"",""2143""
","
","
","""event"",""trial"",""time""
""fullscreenenter"",""0"",""2143""
","
",null,<p></p>,null,,,,,,,,,,,,,,,,,,,,,,,
,do_trial,226,891260,0.0-123.0-0.0,"""event"",""trial"",""time""
""fullscreenenter"",""0"",""2143""
","
","
","""event"",""trial"",""time""
""fullscreenenter"",""0"",""2143""
","
",266,,,,,,,,50,"0,0,1",1,forest,67,probe-130,0.075523983,0.656626084,0.447558645,0,,,,,,,,
,html-keyboard-response,227,892266,0.0-123.0-1.0,"""event"",""trial"",""time""
""fullscreenenter"",""0"",""2143""
","
","
","""event"",""trial"",""time""
""fullscreenenter"",""0"",""2143""
","
",null,<p></p>,null,,,,,,,,,,,,,,,,,,,,,,,
,do_trial,228,897029,0.0-124.0-0.0,"""event"",""trial"",""time""
""fullscreenenter"",""0"",""2143""
","
","
","""event"",""trial"",""time""
""fullscreenenter"",""0"",""2143""
","
",197.1,,,,,,,,50,"0,0,0",1,forest,68,probe-221,0.067188345,0.670212132,0.346562531,0,,,,,,,,
,html-keyboard-response,229,898034,0.0-124.0-1.0,"""event"",""trial"",""time""
""fullscreenenter"",""0"",""2143""
","
","
","""event"",""trial"",""time""
""fullscreenenter"",""0"",""2143""
","
",null,<p></p>,null,,,,,,,,,,,,,,,,,,,,,,,
,do_trial,230,902990,0.0-125.0-0.0,"""event"",""trial"",""time""
""fullscreenenter"",""0"",""2143""
","
","
","""event"",""trial"",""time""
""fullscreenenter"",""0"",""2143""
","
",387.3,,,,,,,,50,"0,1,0",1,forest,69,probe-85,0.081220672,0.708730322,0.339701172,1,,,,,,,,
,html-keyboard-response,231,903997,0.0-125.0-1.0,"""event"",""trial"",""time""
""fullscreenenter"",""0"",""2143""
","
","
","""event"",""trial"",""time""
""fullscreenenter"",""0"",""2143""
","
",null,<p></p>,null,,,,,,,,,,,,,,,,,,,,,,,
,do_bye,232,905508,0.0-126.0-0.0,"""event"",""trial"",""time""
""fullscreenenter"",""0"",""2143""
","
","
","""event"",""trial"",""time""
""fullscreenenter"",""0"",""2143""
","
",null,,,,,,,,null,,,,,,,,,,,,,,,,,
,break,233,905530,0.0-126.0-1.0,"""event"",""trial"",""time""
""fullscreenenter"",""0"",""2143""
","
","
","""event"",""trial"",""time""
""fullscreenenter"",""0"",""2143""
","
",20.30000001,"<div class='center'><p>Time to take a quick break! You have 2 minutes to rest, but you can move on sooner if you'd like.</p><p> Press the <b>space bar</b> to continue.</p></div>",32,,,,,,,,,,,,,,,,,,,,,,,
,do_travel,234,914544,0.0-127.0-0.0,"""event"",""trial"",""time""
""fullscreenenter"",""0"",""2143""
","
","
","""event"",""trial"",""time""
""fullscreenenter"",""0"",""2143""
","
",null,,,,,,,,null,,,,,,,,,,,,,,,,,
,do_welcome,235,918552,0.0-127.0-1.0,"""event"",""trial"",""time""
""fullscreenenter"",""0"",""2143""
","
","
","""event"",""trial"",""time""
""fullscreenenter"",""0"",""2143""
","
",null,,,,,,,,null,,,,,,,,,,,,,,,,,
,do_trial,236,924121,0.0-128.0-0.0,"""event"",""trial"",""time""
""fullscreenenter"",""0"",""2143""
","
","
","""event"",""trial"",""time""
""fullscreenenter"",""0"",""2143""
","
",1002,,,,,,,,49,"0,1,1",2,mountain,70,probe-194,0.095774914,1,0.354562747,0,,,,,,,,
,html-keyboard-response,237,925124,0.0-128.0-1.0,"""event"",""trial"",""time""
""fullscreenenter"",""0"",""2143""
","
","
","""event"",""trial"",""time""
""fullscreenenter"",""0"",""2143""
","
",null,<p></p>,null,,,,,,,,,,,,,,,,,,,,,,,
,do_trial,238,929950,0.0-129.0-0.0,"""event"",""trial"",""time""
""fullscreenenter"",""0"",""2143""
","
","
","""event"",""trial"",""time""
""fullscreenenter"",""0"",""2143""
","
",254.7,,,,,,,,51,"0,1,0",2,mountain,71,probe-52,0.063458979,1,0.303445292,0,,,,,,,,
,html-keyboard-response,239,930957,0.0-129.0-1.0,"""event"",""trial"",""time""
""fullscreenenter"",""0"",""2143""
","
","
","""event"",""trial"",""time""
""fullscreenenter"",""0"",""2143""
","
",null,<p></p>,null,,,,,,,,,,,,,,,,,,,,,,,
,do_trial,240,936025,0.0-130.0-0.0,"""event"",""trial"",""time""
""fullscreenenter"",""0"",""2143""
","
","
","""event"",""trial"",""time""
""fullscreenenter"",""0"",""2143""
","
",503.8,,,,,,,,51,"0,1,1",2,mountain,72,probe-13,0.152994744,0.904187175,0.358286942,1,,,,,,,,
,html-keyboard-response,241,937031,0.0-130.0-1.0,"""event"",""trial"",""time""
""fullscreenenter"",""0"",""2143""
","
","
","""event"",""trial"",""time""
""fullscreenenter"",""0"",""2143""
","
",null,<p></p>,null,,,,,,,,,,,,,,,,,,,,,,,
,do_trial,242,941956,0.0-131.0-0.0,"""event"",""trial"",""time""
""fullscreenenter"",""0"",""2143""
","
","
","""event"",""trial"",""time""
""fullscreenenter"",""0"",""2143""
","
",361.5,,,,,,,,51,"1,1,0",2,mountain,73,probe-12,0.243561897,0.81257795,0.43060958,0,,,,,,,,
,html-keyboard-response,243,942960,0.0-131.0-1.0,"""event"",""trial"",""time""
""fullscreenenter"",""0"",""2143""
","
","
","""event"",""trial"",""time""
""fullscreenenter"",""0"",""2143""
","
",null,<p></p>,null,,,,,,,,,,,,,,,,,,,,,,,
,do_trial,244,947838,0.0-132.0-0.0,"""event"",""trial"",""time""
""fullscreenenter"",""0"",""2143""
","
","
","""event"",""trial"",""time""
""fullscreenenter"",""0"",""2143""
","
",312.9,,,,,,,,50,"0,1,1",2,mountain,74,probe-189,0.130139309,0.819199404,0.3953463,1,,,,,,,,
,html-keyboard-response,245,948847,0.0-132.0-1.0,"""event"",""trial"",""time""
""fullscreenenter"",""0"",""2143""
","
","
","""event"",""trial"",""time""
""fullscreenenter"",""0"",""2143""
","
",null,<p></p>,null,,,,,,,,,,,,,,,,,,,,,,,
,do_trial,246,953665,0.0-133.0-0.0,"""event"",""trial"",""time""
""fullscreenenter"",""0"",""2143""
","
","
","""event"",""trial"",""time""
""fullscreenenter"",""0"",""2143""
","
",259.6,,,,,,,,50,"1,1,1",2,mountain,75,probe-180,0.22872825,0.846708462,0.354292616,1,,,,,,,,
,html-keyboard-response,247,954674,0.0-133.0-1.0,"""event"",""trial"",""time""
""fullscreenenter"",""0"",""2143""
","
","
","""event"",""trial"",""time""
""fullscreenenter"",""0"",""2143""
","
",null,<p></p>,null,,,,,,,,,,,,,,,,,,,,,,,
,do_trial,248,959838,0.0-134.0-0.0,"""event"",""trial"",""time""
""fullscreenenter"",""0"",""2143""
","
","
","""event"",""trial"",""time""
""fullscreenenter"",""0"",""2143""
","
",605.5,,,,,,,,50,"0,1,1",2,mountain,76,probe-43,0.19764522,0.87226842,0.392619772,1,,,,,,,,
,html-keyboard-response,249,960845,0.0-134.0-1.0,"""event"",""trial"",""time""
""fullscreenenter"",""0"",""2143""
","
","
","""event"",""trial"",""time""
""fullscreenenter"",""0"",""2143""
","
",null,<p></p>,null,,,,,,,,,,,,,,,,,,,,,,,
,do_trial,250,965653,0.0-135.0-0.0,"""event"",""trial"",""time""
""fullscreenenter"",""0"",""2143""
","
","
","""event"",""trial"",""time""
""fullscreenenter"",""0"",""2143""
","
",254.2,,,,,,,,50,"0,1,0",2,mountain,77,probe-91,0.235452373,0.814583492,0.319884891,1,,,,,,,,
,html-keyboard-response,251,966660,0.0-135.0-1.0,"""event"",""trial"",""time""
""fullscreenenter"",""0"",""2143""
","
","
","""event"",""trial"",""time""
""fullscreenenter"",""0"",""2143""
","
",null,<p></p>,null,,,,,,,,,,,,,,,,,,,,,,,
,do_trial,252,971451,0.0-136.0-0.0,"""event"",""trial"",""time""
""fullscreenenter"",""0"",""2143""
","
","
","""event"",""trial"",""time""
""fullscreenenter"",""0"",""2143""
","
",218,,,,,,,,50,"0,1,0",2,mountain,78,probe-95,0.252089377,0.705342454,0.262420162,1,,,,,,,,
,html-keyboard-response,253,972457,0.0-136.0-1.0,"""event"",""trial"",""time""
""fullscreenenter"",""0"",""2143""
","
","
","""event"",""trial"",""time""
""fullscreenenter"",""0"",""2143""
","
",null,<p></p>,null,,,,,,,,,,,,,,,,,,,,,,,
,do_trial,254,977270,0.0-137.0-0.0,"""event"",""trial"",""time""
""fullscreenenter"",""0"",""2143""
","
","
","""event"",""trial"",""time""
""fullscreenenter"",""0"",""2143""
","
",248.4,,,,,,,,50,"0,1,0",2,mountain,79,probe-182,0.103950601,0.778430777,0.351255552,1,,,,,,,,
,html-keyboard-response,255,978274,0.0-137.0-1.0,"""event"",""trial"",""time""
""fullscreenenter"",""0"",""2143""
","
","
","""event"",""trial"",""time""
""fullscreenenter"",""0"",""2143""
","
",null,<p></p>,null,,,,,,,,,,,,,,,,,,,,,,,
,do_trial,256,983060,0.0-138.0-0.0,"""event"",""trial"",""time""
""fullscreenenter"",""0"",""2143""
","
","
","""event"",""trial"",""time""
""fullscreenenter"",""0"",""2143""
","
",221.9,,,,,,,,50,"1,1,0",2,mountain,80,probe-220,0.094786185,0.653359845,0.437239102,1,,,,,,,,
,html-keyboard-response,257,984063,0.0-138.0-1.0,"""event"",""trial"",""time""
""fullscreenenter"",""0"",""2143""
","
","
","""event"",""trial"",""time""
""fullscreenenter"",""0"",""2143""
","
",null,<p></p>,null,,,,,,,,,,,,,,,,,,,,,,,
,do_trial,258,988874,0.0-139.0-0.0,"""event"",""trial"",""time""
""fullscreenenter"",""0"",""2143""
","
","
","""event"",""trial"",""time""
""fullscreenenter"",""0"",""2143""
","
",249.5,,,,,,,,50,"0,1,1",2,mountain,81,probe-14,0.133736406,0.734021861,0.368168674,1,,,,,,,,
,html-keyboard-response,259,989878,0.0-139.0-1.0,"""event"",""trial"",""time""
""fullscreenenter"",""0"",""2143""
","
","
","""event"",""trial"",""time""
""fullscreenenter"",""0"",""2143""
","
",null,<p></p>,null,,,,,,,,,,,,,,,,,,,,,,,
,do_trial,260,994817,0.0-140.0-0.0,"""event"",""trial"",""time""
""fullscreenenter"",""0"",""2143""
","
","
","""event"",""trial"",""time""
""fullscreenenter"",""0"",""2143""
","
",379.8,,,,,,,,50,"0,0,0",2,mountain,82,probe-218,0.124038653,0.509325743,0.464373204,0,,,,,,,,
,html-keyboard-response,261,995823,0.0-140.0-1.0,"""event"",""trial"",""time""
""fullscreenenter"",""0"",""2143""
","
","
","""event"",""trial"",""time""
""fullscreenenter"",""0"",""2143""
","
",null,<p></p>,null,,,,,,,,,,,,,,,,,,,,,,,
,do_trial,262,1000763,0.0-141.0-0.0,"""event"",""trial"",""time""
""fullscreenenter"",""0"",""2143""
","
","
","""event"",""trial"",""time""
""fullscreenenter"",""0"",""2143""
","
",379.2,,,,,,,,50,"1,0,0",2,mountain,83,probe-127,0.079186029,0.567886103,0.467839143,0,,,,,,,,
,html-keyboard-response,263,1001779,0.0-141.0-1.0,"""event"",""trial"",""time""
""fullscreenenter"",""0"",""2143""
","
","
","""event"",""trial"",""time""
""fullscreenenter"",""0"",""2143""
","
",null,<p></p>,null,,,,,,,,,,,,,,,,,,,,,,,
,do_trial,264,1006622,0.0-142.0-0.0,"""event"",""trial"",""time""
""fullscreenenter"",""0"",""2143""
","
","
","""event"",""trial"",""time""
""fullscreenenter"",""0"",""2143""
","
",275.9,,,,,,,,50,"0,0,0",2,mountain,84,probe-93,0.098268699,0.336188389,0.389292246,0,,,,,,,,
,html-keyboard-response,265,1007628,0.0-142.0-1.0,"""event"",""trial"",""time""
""fullscreenenter"",""0"",""2143""
","
","
","""event"",""trial"",""time""
""fullscreenenter"",""0"",""2143""
","
",null,<p></p>,null,,,,,,,,,,,,,,,,,,,,,,,
,do_trial,266,1012434,0.0-143.0-0.0,"""event"",""trial"",""time""
""fullscreenenter"",""0"",""2143""
","
","
","""event"",""trial"",""time""
""fullscreenenter"",""0"",""2143""
","
",259.2,,,,,,,,50,"0,0,0",2,mountain,85,probe-129,0.157650356,0.274649108,0.66918808,0,,,,,,,,
,html-keyboard-response,267,1013437,0.0-143.0-1.0,"""event"",""trial"",""time""
""fullscreenenter"",""0"",""2143""
","
","
","""event"",""trial"",""time""
""fullscreenenter"",""0"",""2143""
","
",null,<p></p>,null,,,,,,,,,,,,,,,,,,,,,,,
,do_trial,268,1018065,0.0-144.0-0.0,"""event"",""trial"",""time""
""fullscreenenter"",""0"",""2143""
","
","
","""event"",""trial"",""time""
""fullscreenenter"",""0"",""2143""
","
",78.39999998,,,,,,,,50,"0,0,1",2,mountain,86,probe-114,0.185923908,0.270657634,0.597532825,0,,,,,,,,
,html-keyboard-response,269,1019081,0.0-144.0-1.0,"""event"",""trial"",""time""
""fullscreenenter"",""0"",""2143""
","
","
","""event"",""trial"",""time""
""fullscreenenter"",""0"",""2143""
","
",null,<p></p>,null,,,,,,,,,,,,,,,,,,,,,,,
,do_trial,270,1023885,0.0-145.0-0.0,"""event"",""trial"",""time""
""fullscreenenter"",""0"",""2143""
","
","
","""event"",""trial"",""time""
""fullscreenenter"",""0"",""2143""
","
",233.9,,,,,,,,51,"0,0,1",2,mountain,87,probe-224,0.119328981,0.270185154,0.533984466,1,,,,,,,,
,html-keyboard-response,271,1024893,0.0-145.0-1.0,"""event"",""trial"",""time""
""fullscreenenter"",""0"",""2143""
","
","
","""event"",""trial"",""time""
""fullscreenenter"",""0"",""2143""
","
",null,<p></p>,null,,,,,,,,,,,,,,,,,,,,,,,
,do_trial,272,1029986,0.0-146.0-0.0,"""event"",""trial"",""time""
""fullscreenenter"",""0"",""2143""
","
","
","""event"",""trial"",""time""
""fullscreenenter"",""0"",""2143""
","
",540.5,,,,,,,,50,"0,0,1",2,mountain,88,probe-39,0.077848244,0.172432686,0.606509266,0,,,,,,,,
,html-keyboard-response,273,1030987,0.0-146.0-1.0,"""event"",""trial"",""time""
""fullscreenenter"",""0"",""2143""
","
","
","""event"",""trial"",""time""
""fullscreenenter"",""0"",""2143""
","
",null,<p></p>,null,,,,,,,,,,,,,,,,,,,,,,,
,do_trial,274,1036035,0.0-147.0-0.0,"""event"",""trial"",""time""
""fullscreenenter"",""0"",""2143""
","
","
","""event"",""trial"",""time""
""fullscreenenter"",""0"",""2143""
","
",489.1,,,,,,,,49,"0,0,0",2,mountain,89,probe-11,0.154046212,0.218649416,0.558389218,0,,,,,,,,
,html-keyboard-response,275,1037052,0.0-147.0-1.0,"""event"",""trial"",""time""
""fullscreenenter"",""0"",""2143""
","
","
","""event"",""trial"",""time""
""fullscreenenter"",""0"",""2143""
","
",null,<p></p>,null,,,,,,,,,,,,,,,,,,,,,,,
,do_trial,276,1041923,0.0-148.0-0.0,"""event"",""trial"",""time""
""fullscreenenter"",""0"",""2143""
","
","
","""event"",""trial"",""time""
""fullscreenenter"",""0"",""2143""
","
",313.3,,,,,,,,51,"0,0,0",2,mountain,90,probe-154,0.109168841,0.292983124,0.5236665,0,,,,,,,,
,html-keyboard-response,277,1042925,0.0-148.0-1.0,"""event"",""trial"",""time""
""fullscreenenter"",""0"",""2143""
","
","
","""event"",""trial"",""time""
""fullscreenenter"",""0"",""2143""
","
",null,<p></p>,null,,,,,,,,,,,,,,,,,,,,,,,
,do_trial,278,1047714,0.0-149.0-0.0,"""event"",""trial"",""time""
""fullscreenenter"",""0"",""2143""
","
","
","""event"",""trial"",""time""
""fullscreenenter"",""0"",""2143""
","
",234.4,,,,,,,,50,"0,0,1",2,mountain,91,probe-55,0.174419269,0.390142082,0.567704137,0,,,,,,,,
,html-keyboard-response,279,1048719,0.0-149.0-1.0,"""event"",""trial"",""time""
""fullscreenenter"",""0"",""2143""
","
","
","""event"",""trial"",""time""
""fullscreenenter"",""0"",""2143""
","
",null,<p></p>,null,,,,,,,,,,,,,,,,,,,,,,,
,do_trial,280,1053550,0.0-150.0-0.0,"""event"",""trial"",""time""
""fullscreenenter"",""0"",""2143""
","
","
","""event"",""trial"",""time""
""fullscreenenter"",""0"",""2143""
","
",268.7,,,,,,,,50,"1,1,1",2,mountain,92,probe-176,0.22664938,0.346084039,0.620784731,1,,,,,,,,
,html-keyboard-response,281,1054552,0.0-150.0-1.0,"""event"",""trial"",""time""
""fullscreenenter"",""0"",""2143""
","
","
","""event"",""trial"",""time""
""fullscreenenter"",""0"",""2143""
","
",null,<p></p>,null,,,,,,,,,,,,,,,,,,,,,,,
,do_trial,282,1059404,0.0-151.0-0.0,"""event"",""trial"",""time""
""fullscreenenter"",""0"",""2143""
","
","
","""event"",""trial"",""time""
""fullscreenenter"",""0"",""2143""
","
",282,,,,,,,,50,"0,1,0",2,mountain,93,probe-65,0.233833075,0.202874679,0.633581836,1,,,,,,,,
,html-keyboard-response,283,1060412,0.0-151.0-1.0,"""event"",""trial"",""time""
""fullscreenenter"",""0"",""2143""
","
","
","""event"",""trial"",""time""
""fullscreenenter"",""0"",""2143""
","
",null,<p></p>,null,,,,,,,,,,,,,,,,,,,,,,,
,do_trial,284,1065205,0.0-152.0-0.0,"""event"",""trial"",""time""
""fullscreenenter"",""0"",""2143""
","
","
","""event"",""trial"",""time""
""fullscreenenter"",""0"",""2143""
","
",231.7,,,,,,,,50,"0,0,0",2,mountain,94,probe-124,0.200137413,0.300637953,0.6272819,0,,,,,,,,
,html-keyboard-response,285,1066207,0.0-152.0-1.0,"""event"",""trial"",""time""
""fullscreenenter"",""0"",""2143""
","
","
","""event"",""trial"",""time""
""fullscreenenter"",""0"",""2143""
","
",null,<p></p>,null,,,,,,,,,,,,,,,,,,,,,,,
,do_trial,286,1070987,0.0-153.0-0.0,"""event"",""trial"",""time""
""fullscreenenter"",""0"",""2143""
","
","
","""event"",""trial"",""time""
""fullscreenenter"",""0"",""2143""
","
",227.7,,,,,,,,51,"0,0,0",2,mountain,95,probe-20,0.214051077,0.447451801,0.558052413,0,,,,,,,,
,html-keyboard-response,287,1071997,0.0-153.0-1.0,"""event"",""trial"",""time""
""fullscreenenter"",""0"",""2143""
","
","
","""event"",""trial"",""time""
""fullscreenenter"",""0"",""2143""
","
",null,<p></p>,null,,,,,,,,,,,,,,,,,,,,,,,
,do_trial,288,1076799,0.0-154.0-0.0,"""event"",""trial"",""time""
""fullscreenenter"",""0"",""2143""
","
","
","""event"",""trial"",""time""
""fullscreenenter"",""0"",""2143""
","
",251.9,,,,,,,,50,"0,0,1",2,mountain,96,probe-181,0.147038134,0.423266595,0.635231121,0,,,,,,,,
,html-keyboard-response,289,1077802,0.0-154.0-1.0,"""event"",""trial"",""time""
""fullscreenenter"",""0"",""2143""
","
","
","""event"",""trial"",""time""
""fullscreenenter"",""0"",""2143""
","
",null,<p></p>,null,,,,,,,,,,,,,,,,,,,,,,,
,do_trial,290,1082623,0.0-155.0-0.0,"""event"",""trial"",""time""
""fullscreenenter"",""0"",""2143""
","
","
","""event"",""trial"",""time""
""fullscreenenter"",""0"",""2143""
","
",269.8,,,,,,,,50,"0,1,0",2,mountain,97,probe-46,0.176808585,0.409897689,0.459394103,1,,,,,,,,
,html-keyboard-response,291,1083624,0.0-155.0-1.0,"""event"",""trial"",""time""
""fullscreenenter"",""0"",""2143""
","
","
","""event"",""trial"",""time""
""fullscreenenter"",""0"",""2143""
","
",null,<p></p>,null,,,,,,,,,,,,,,,,,,,,,,,
,do_trial,292,1088423,0.0-156.0-0.0,"""event"",""trial"",""time""
""fullscreenenter"",""0"",""2143""
","
","
","""event"",""trial"",""time""
""fullscreenenter"",""0"",""2143""
","
",242,,,,,,,,50,"0,0,1",2,mountain,98,probe-05,0.167570635,0.40158303,0.506120511,0,,,,,,,,
,html-keyboard-response,293,1089425,0.0-156.0-1.0,"""event"",""trial"",""time""
""fullscreenenter"",""0"",""2143""
","
","
","""event"",""trial"",""time""
""fullscreenenter"",""0"",""2143""
","
",null,<p></p>,null,,,,,,,,,,,,,,,,,,,,,,,
,do_trial,294,1094263,0.0-157.0-0.0,"""event"",""trial"",""time""
""fullscreenenter"",""0"",""2143""
","
","
","""event"",""trial"",""time""
""fullscreenenter"",""0"",""2143""
","
",287.3,,,,,,,,51,"0,1,0",2,mountain,99,probe-54,0.098793341,0.384801776,0.569321022,0,,,,,,,,
,html-keyboard-response,295,1095265,0.0-157.0-1.0,"""event"",""trial"",""time""
""fullscreenenter"",""0"",""2143""
","
","
","""event"",""trial"",""time""
""fullscreenenter"",""0"",""2143""
","
",null,<p></p>,null,,,,,,,,,,,,,,,,,,,,,,,
,do_trial,296,1100041,0.0-158.0-0.0,"""event"",""trial"",""time""
""fullscreenenter"",""0"",""2143""
","
","
","""event"",""trial"",""time""
""fullscreenenter"",""0"",""2143""
","
",227.1,,,,,,,,50,"0,0,0",2,mountain,100,probe-105,0.079048192,0.257053613,0.590465015,0,,,,,,,,
,html-keyboard-response,297,1101042,0.0-158.0-1.0,"""event"",""trial"",""time""
""fullscreenenter"",""0"",""2143""
","
","
","""event"",""trial"",""time""
""fullscreenenter"",""0"",""2143""
","
",null,<p></p>,null,,,,,,,,,,,,,,,,,,,,,,,
,do_trial,298,1105855,0.0-159.0-0.0,"""event"",""trial"",""time""
""fullscreenenter"",""0"",""2143""
","
","
","""event"",""trial"",""time""
""fullscreenenter"",""0"",""2143""
","
",262.4,,,,,,,,50,"0,0,1",2,mountain,101,probe-75,0.067002118,0.219984332,0.602392896,0,,,,,,,,
,html-keyboard-response,299,1106857,0.0-159.0-1.0,"""event"",""trial"",""time""
""fullscreenenter"",""0"",""2143""
","
","
","""event"",""trial"",""time""
""fullscreenenter"",""0"",""2143""
","
",null,<p></p>,null,,,,,,,,,,,,,,,,,,,,,,,
,do_trial,300,1111641,0.0-160.0-0.0,"""event"",""trial"",""time""
""fullscreenenter"",""0"",""2143""
","
","
","""event"",""trial"",""time""
""fullscreenenter"",""0"",""2143""
","
",231.5,,,,,,,,51,"0,1,0",2,mountain,102,probe-202,0.154621756,0.229572514,0.698693795,0,,,,,,,,
,html-keyboard-response,301,1112642,0.0-160.0-1.0,"""event"",""trial"",""time""
""fullscreenenter"",""0"",""2143""
","
","
","""event"",""trial"",""time""
""fullscreenenter"",""0"",""2143""
","
",null,<p></p>,null,,,,,,,,,,,,,,,,,,,,,,,
,do_trial,302,1117912,0.0-161.0-0.0,"""event"",""trial"",""time""
""fullscreenenter"",""0"",""2143""
","
","
","""event"",""trial"",""time""
""fullscreenenter"",""0"",""2143""
","
",716.5,,,,,,,,49,"1,1,1",2,mountain,103,probe-117,0.109294587,0.331331188,0.686540862,1,,,,,,,,
,html-keyboard-response,303,1118914,0.0-161.0-1.0,"""event"",""trial"",""time""
""fullscreenenter"",""0"",""2143""
","
","
","""event"",""trial"",""time""
""fullscreenenter"",""0"",""2143""
","
",null,<p></p>,null,,,,,,,,,,,,,,,,,,,,,,,
,do_trial,304,1123914,0.0-162.0-0.0,"""event"",""trial"",""time""
""fullscreenenter"",""0"",""2143""
","
","
","""event"",""trial"",""time""
""fullscreenenter"",""0"",""2143""
","
",439.9,,,,,,,,50,"0,1,0",2,mountain,104,probe-125,0.12305431,0.376083665,0.785224378,1,,,,,,,,
,html-keyboard-response,305,1124917,0.0-162.0-1.0,"""event"",""trial"",""time""
""fullscreenenter"",""0"",""2143""
","
","
","""event"",""trial"",""time""
""fullscreenenter"",""0"",""2143""
","
",null,<p></p>,null,,,,,,,,,,,,,,,,,,,,,,,
,do_trial,306,1129898,0.0-163.0-0.0,"""event"",""trial"",""time""
""fullscreenenter"",""0"",""2143""
","
","
","""event"",""trial"",""time""
""fullscreenenter"",""0"",""2143""
","
",421.7,,,,,,,,50,"0,1,0",2,mountain,105,probe-51,0.050611429,0.425898333,0.546128943,1,,,,,,,,
,html-keyboard-response,307,1130902,0.0-163.0-1.0,"""event"",""trial"",""time""
""fullscreenenter"",""0"",""2143""
","
","
","""event"",""trial"",""time""
""fullscreenenter"",""0"",""2143""
","
",null,<p></p>,null,,,,,,,,,,,,,,,,,,,,,,,
,do_trial,308,1135828,0.0-164.0-0.0,"""event"",""trial"",""time""
""fullscreenenter"",""0"",""2143""
","
","
","""event"",""trial"",""time""
""fullscreenenter"",""0"",""2143""
","
",366.4,,,,,,,,50,"0,1,1",2,mountain,106,probe-106,0.147014846,0.336044193,0.6847566,1,,,,,,,,
,html-keyboard-response,309,1136829,0.0-164.0-1.0,"""event"",""trial"",""time""
""fullscreenenter"",""0"",""2143""
","
","
","""event"",""trial"",""time""
""fullscreenenter"",""0"",""2143""
","
",null,<p></p>,null,,,,,,,,,,,,,,,,,,,,,,,
,do_trial,310,1141841,0.0-165.0-0.0,"""event"",""trial"",""time""
""fullscreenenter"",""0"",""2143""
","
","
","""event"",""trial"",""time""
""fullscreenenter"",""0"",""2143""
","
",457.3,,,,,,,,50,"0,1,1",2,mountain,107,probe-02,0.136703588,0.268795268,0.763479762,1,,,,,,,,
,html-keyboard-response,311,1142843,0.0-165.0-1.0,"""event"",""trial"",""time""
""fullscreenenter"",""0"",""2143""
","
","
","""event"",""trial"",""time""
""fullscreenenter"",""0"",""2143""
","
",null,<p></p>,null,,,,,,,,,,,,,,,,,,,,,,,
,do_trial,312,1148208,0.0-166.0-0.0,"""event"",""trial"",""time""
""fullscreenenter"",""0"",""2143""
","
","
","""event"",""trial"",""time""
""fullscreenenter"",""0"",""2143""
","
",812.4,,,,,,,,50,"0,0,1",2,mountain,108,probe-19,0.121468006,0.264904194,0.737078885,0,,,,,,,,
,html-keyboard-response,313,1149210,0.0-166.0-1.0,"""event"",""trial"",""time""
""fullscreenenter"",""0"",""2143""
","
","
","""event"",""trial"",""time""
""fullscreenenter"",""0"",""2143""
","
",null,<p></p>,null,,,,,,,,,,,,,,,,,,,,,,,
,do_trial,314,1154041,0.0-167.0-0.0,"""event"",""trial"",""time""
""fullscreenenter"",""0"",""2143""
","
","
","""event"",""trial"",""time""
""fullscreenenter"",""0"",""2143""
","
",269.9,,,,,,,,49,"0,0,0",2,mountain,109,probe-226,0.081911561,0.484217905,0.571350471,0,,,,,,,,
,html-keyboard-response,315,1155043,0.0-167.0-1.0,"""event"",""trial"",""time""
""fullscreenenter"",""0"",""2143""
","
","
","""event"",""trial"",""time""
""fullscreenenter"",""0"",""2143""
","
",null,<p></p>,null,,,,,,,,,,,,,,,,,,,,,,,
,do_bye,316,1156550,0.0-168.0-0.0,"""event"",""trial"",""time""
""fullscreenenter"",""0"",""2143""
","
","
","""event"",""trial"",""time""
""fullscreenenter"",""0"",""2143""
","
",null,,,,,,,,null,,,,,,,,,,,,,,,,,
,break,317,1157758,0.0-168.0-1.0,"""event"",""trial"",""time""
""fullscreenenter"",""0"",""2143""
","
","
","""event"",""trial"",""time""
""fullscreenenter"",""0"",""2143""
","
",1207,"<div class='center'><p>Time to take a quick break! You have 2 minutes to rest, but you can move on sooner if you'd like.</p><p> Press the <b>space bar</b> to continue.</p></div>",32,,,,,,,,,,,,,,,,,,,,,,,
,do_travel,318,1166774,0.0-169.0-0.0,"""event"",""trial"",""time""
""fullscreenenter"",""0"",""2143""
","
","
","""event"",""trial"",""time""
""fullscreenenter"",""0"",""2143""
","
",null,,,,,,,,null,,,,,,,,,,,,,,,,,
,do_welcome,319,1170782,0.0-169.0-1.0,"""event"",""trial"",""time""
""fullscreenenter"",""0"",""2143""
","
","
","""event"",""trial"",""time""
""fullscreenenter"",""0"",""2143""
","
",null,,,,,,,,null,,,,,,,,,,,,,,,,,
,do_trial,320,1176122,0.0-170.0-0.0,"""event"",""trial"",""time""
""fullscreenenter"",""0"",""2143""
","
","
","""event"",""trial"",""time""
""fullscreenenter"",""0"",""2143""
","
",767.2,,,,,,,,50,"0,1,1",3,highway,110,probe-210,0.094704245,0.544445889,1,1,,,,,,,,
,html-keyboard-response,321,1177137,0.0-170.0-1.0,"""event"",""trial"",""time""
""fullscreenenter"",""0"",""2143""
","
","
","""event"",""trial"",""time""
""fullscreenenter"",""0"",""2143""
","
",null,<p></p>,null,,,,,,,,,,,,,,,,,,,,,,,
,do_trial,322,1182134,0.0-171.0-0.0,"""event"",""trial"",""time""
""fullscreenenter"",""0"",""2143""
","
","
","""event"",""trial"",""time""
""fullscreenenter"",""0"",""2143""
","
",437.1,,,,,,,,50,"0,0,1",3,highway,111,probe-50,0.164300109,0.382552005,1,0,,,,,,,,
,html-keyboard-response,323,1183141,0.0-171.0-1.0,"""event"",""trial"",""time""
""fullscreenenter"",""0"",""2143""
","
","
","""event"",""trial"",""time""
""fullscreenenter"",""0"",""2143""
","
",null,<p></p>,null,,,,,,,,,,,,,,,,,,,,,,,
,do_trial,324,1187925,0.0-172.0-0.0,"""event"",""trial"",""time""
""fullscreenenter"",""0"",""2143""
","
","
","""event"",""trial"",""time""
""fullscreenenter"",""0"",""2143""
","
",231.8,,,,,,,,51,"1,0,1",3,highway,112,probe-219,0.201325815,0.218957278,0.932770556,1,,,,,,,,
,html-keyboard-response,325,1188940,0.0-172.0-1.0,"""event"",""trial"",""time""
""fullscreenenter"",""0"",""2143""
","
","
","""event"",""trial"",""time""
""fullscreenenter"",""0"",""2143""
","
",null,<p></p>,null,,,,,,,,,,,,,,,,,,,,,,,
,do_trial,326,1193972,0.0-173.0-0.0,"""event"",""trial"",""time""
""fullscreenenter"",""0"",""2143""
","
","
","""event"",""trial"",""time""
""fullscreenenter"",""0"",""2143""
","
",459.7,,,,,,,,51,"1,0,0",3,highway,113,probe-144,0.171248328,0.281783185,0.74554428,0,,,,,,,,
,html-keyboard-response,327,1194973,0.0-173.0-1.0,"""event"",""trial"",""time""
""fullscreenenter"",""0"",""2143""
","
","
","""event"",""trial"",""time""
""fullscreenenter"",""0"",""2143""
","
",null,<p></p>,null,,,,,,,,,,,,,,,,,,,,,,,
,do_trial,328,1199906,0.0-174.0-0.0,"""event"",""trial"",""time""
""fullscreenenter"",""0"",""2143""
","
","
","""event"",""trial"",""time""
""fullscreenenter"",""0"",""2143""
","
",379.3,,,,,,,,50,"0,0,1",3,highway,114,probe-192,0.144910019,0.219168604,0.616914318,0,,,,,,,,
,html-keyboard-response,329,1200909,0.0-174.0-1.0,"""event"",""trial"",""time""
""fullscreenenter"",""0"",""2143""
","
","
","""event"",""trial"",""time""
""fullscreenenter"",""0"",""2143""
","
",null,<p></p>,null,,,,,,,,,,,,,,,,,,,,,,,
,do_trial,330,1205561,0.0-175.0-0.0,"""event"",""trial"",""time""
""fullscreenenter"",""0"",""2143""
","
","
","""event"",""trial"",""time""
""fullscreenenter"",""0"",""2143""
","
",93.20000002,,,,,,,,49,"0,0,1",3,highway,115,probe-113,0.076992808,0.163012971,0.648311531,0,,,,,,,,
,html-keyboard-response,331,1206567,0.0-175.0-1.0,"""event"",""trial"",""time""
""fullscreenenter"",""0"",""2143""
","
","
","""event"",""trial"",""time""
""fullscreenenter"",""0"",""2143""
","
",null,<p></p>,null,,,,,,,,,,,,,,,,,,,,,,,
,do_trial,332,1211469,0.0-176.0-0.0,"""event"",""trial"",""time""
""fullscreenenter"",""0"",""2143""
","
","
","""event"",""trial"",""time""
""fullscreenenter"",""0"",""2143""
","
",339.6,,,,,,,,50,"0,0,1",3,highway,116,probe-184,0.187213951,0.082220235,0.653416375,0,,,,,,,,
,html-keyboard-response,333,1212475,0.0-176.0-1.0,"""event"",""trial"",""time""
""fullscreenenter"",""0"",""2143""
","
","
","""event"",""trial"",""time""
