"success","trial_type","trial_index","time_elapsed","internal_node_id","interactions","blur_events","focus_events","fullscreenenter_events","fullscreenexit_events","rt","stimulus","key_press","subject_id","participant_id","age","gender","prompt","response","choice_outcomes","context_n","context_img_id","trial_n","probe_img_id","pR_red","pR_white","pR_black","outcome","contextArray_ind","validImageProbes","invalidImageProbes","pRew_Red","pRew_White","pRew_Black","availableForMemProbe","choice_blocks"
"true","fullscreen","0","3082","0.0-0.0","""event"",""trial"",""time""
""fullscreenenter"",""0"",""2106""
","
","
","""event"",""trial"",""time""
""fullscreenenter"",""0"",""2106""
","
","","","","","","","","","","","","","","","","","","","","","","","","","",""
"","pavlovia","1","3089","0.0-1.0","""event"",""trial"",""time""
""fullscreenenter"",""0"",""2106""
","
","
","""event"",""trial"",""time""
""fullscreenenter"",""0"",""2106""
","
","","","","","","","","","","","","","","","","","","","","","","","","","",""
"","instruc1","2","48576","0.0-2.0","""event"",""trial"",""time""
""fullscreenenter"",""0"",""2106""
","
","
","""event"",""trial"",""time""
""fullscreenenter"",""0"",""2106""
","
","null","run_exp/static/audio/clip_1_welcome.m4a","null","251","844","12","Male","<div class='center'><p>Welcome! This is the first part of the study. It will last ~30 minutes. In part 1 and part 2 of the study, you are the head captain of a pirate ship traveling around the world to different islands. You will play a few different games throughout these two parts. Here is an overview of them:</p><br><p>Part 1 (today)</p><p>1. Instructions, practice game, and quiz</p><p>2. Pick a pirate game on 6 different islands</p><br><p>Part 2 (tomorrow)</p><p>3. Pick a pirate game and memory game</p><p>4. Where did you see this ship? </p></div>","","","","","","","","","","","","","","","","","",""
"","html-keyboard-response","3","59010","0.0-3.0","""event"",""trial"",""time""
""fullscreenenter"",""0"",""2106""
","
","
","""event"",""trial"",""time""
""fullscreenenter"",""0"",""2106""
","
","10430.5","<div class='center'><p>Welcome! This is the first part of the study. It will last ~30 minutes. In part 1 and part 2 of the study, you are the head captain of a pirate ship traveling around the world to different islands. You will play a few different games throughout these two parts. Here is an overview of them:</p><br><p>Part 1 (today)</p><p>1. Instructions, practice game, and quiz</p><p>2. Pick a pirate game on 6 different islands</p><br><p>Part 2 (tomorrow)</p><p>3. Pick a pirate game and memory game</p><p>4. Where did you see this ship? </p><p><b>[Press the space bar to continue]</b></p></div>","32","","","","","","","","","","","","","","","","","","","","","","",""
"","instruc2","4","64316","0.0-4.0","""event"",""trial"",""time""
""fullscreenenter"",""0"",""2106""
","
","
","""event"",""trial"",""time""
""fullscreenenter"",""0"",""2106""
","
","null","run_exp/static/audio/clip_2_different_places.m4a","null","","","","","<div class='center'><p>Today, you’ll visit these 6 islands on your journey. You'll be able to see these islands from your ship.</p><p><img src='run_exp/static/images/contexts/all_contexts.png' height='500'></p></div>","","","","","","","","","","","","","","","","","",""
"","html-keyboard-response","5","73856","0.0-5.0","""event"",""trial"",""time""
""fullscreenenter"",""0"",""2106""
","
","
","""event"",""trial"",""time""
""fullscreenenter"",""0"",""2106""
","
","9536.800000071526","<div class='center'><p>Today, you’ll visit these 6 islands on your journey. You'll be able to see these islands from your ship.</p><p><img src='run_exp/static/images/contexts/all_contexts.png' height='500'></p><p><b>[Press the space bar to continue]</b></p></div>","32","","","","","","","","","","","","","","","","","","","","","","",""
"","instruc3","6","83558","0.0-6.0","""event"",""trial"",""time""
""fullscreenenter"",""0"",""2106""
","
","
","""event"",""trial"",""time""
""fullscreenenter"",""0"",""2106""
","
","null","run_exp/static/audio/clip_3_goal_of_game_1.m4a","null","","","","","<div class='center'><p> The pirates on your ship will rob other ships as they leave the island.</p> These ships have just sold their goods to the islanders, so they will be filled with lots and lots of gold.</p><p><img src='run_exp/static/images/tutorial/ship_center.png' height='400'></p></div>","","","","","","","","","","","","","","","","","",""
"","html-keyboard-response","7","97711","0.0-7.0","""event"",""trial"",""time""
""fullscreenenter"",""0"",""2106""
","
","
","""event"",""trial"",""time""
""fullscreenenter"",""0"",""2106""
","
","14151.599999904633","<div class='center'><p> The pirates on your ship will rob other ships as they leave the island.</p> These ships have just sold their goods to the islanders, so they will be filled with lots and lots of gold.</p><p><img src='run_exp/static/images/tutorial/ship_center.png' height='400'></p><p><b>[Press the space bar to continue]</b></p></div>","32","","","","","","","","","","","","","","","","","","","","","","",""
"","instruc4","8","125712","0.0-8.0","""event"",""trial"",""time""
""fullscreenenter"",""0"",""2106""
","
","
","""event"",""trial"",""time""
""fullscreenenter"",""0"",""2106""
","
","null","run_exp/static/audio/clip_4_goal_of_game_2.m4a","null","","","","","<div class='center'><p>As the head captain, you do not have to rob any ships yourself. Another pirate will be doing the robbing for you. First, you will choose a pirate to rob the next ship.</p><p><img src='run_exp/static/images/tutorial/pirates_all_crop.png' height='200'></p><p>Then, you'll see if the pirate successfully robbed the ship of their gold. If they were successful, then you'll get a stack of gold coins like this:</p><p><img src='run_exp/static/images/tutorial/reward.png' height='150'></p><p> If they were <b>not</b> successful, then you'll get no gold coins, and you'll see a big red x like this: </p><p><img src='run_exp/static/images/tutorial/reward_no.png' height='150'></p><p> How much bonus money you make is based on how many gold coins you collect.</p><div>","","","","","","","","","","","","","","","","","",""
"","html-keyboard-response","9","127575","0.0-9.0","""event"",""trial"",""time""
""fullscreenenter"",""0"",""2106""
","
","
","""event"",""trial"",""time""
""fullscreenenter"",""0"",""2106""
","
","1859.6999999284744","<div class='center'><p>As the head captain, you do not have to rob any ships yourself. Another pirate will be doing the robbing for you. First, you will choose a pirate to rob the next ship.</p><p><img src='run_exp/static/images/tutorial/pirates_all_crop.png' height='200'></p><p>Then, you'll see if the pirate successfully robbed the ship of their gold. If they were successful, then you'll get a stack of gold coins like this:</p><p><img src='run_exp/static/images/tutorial/reward.png' height='150'></p><p> If they were <b>not</b> successful, then you'll get no gold coins, and you'll see a big red x like this: </p><p><img src='run_exp/static/images/tutorial/reward_no.png' height='150'></p><p> How much bonus money you make is based on how many gold coins you collect.</p<p><b>[Press the space bar to continue]</b></p></div>","32","","","","","","","","","","","","","","","","","","","","","","",""
"","instruc5","10","149632","0.0-10.0","""event"",""trial"",""time""
""fullscreenenter"",""0"",""2106""
","
","
","""event"",""trial"",""time""
""fullscreenenter"",""0"",""2106""
","
","22055","run_exp/static/audio/clip_5_probabilistic.m4a","49","","","","","<div class='center'><p>Even the most skilled pirate can not rob EVERY ship.</p><p> Some ships will have very strong protections against pirate attacks.</p><p> Blue beard, here, is very, very good at robbing ships, but he won't be successful every time he tries to rob one.</p><p> You can press the <b>‘1’</b> key on the keyboard to choose him.</p><p> Try choosing him 10 times to see how often he succeeds at robbing a ship. </p><p><img src='run_exp/static/images/tutorial/blue.png' height='500'></p></div>","","","","","","","","","","","","","","","","","",""
"","html-keyboard-response","11","151139","0.0-11.0","""event"",""trial"",""time""
""fullscreenenter"",""0"",""2106""
","
","
","""event"",""trial"",""time""
""fullscreenenter"",""0"",""2106""
","
","null","<div class='center'><p><img src='run_exp/static/images/tutorial/blue_win.png' height='500'></p></div>","null","","","","","","","","","","","","","","","","","","","","","","",""
"","html-keyboard-response","12","152703","0.0-12.0","""event"",""trial"",""time""
""fullscreenenter"",""0"",""2106""
","
","
","""event"",""trial"",""time""
""fullscreenenter"",""0"",""2106""
","
","1562.1999999284744","<div class='center'><img src='run_exp/static/images/tutorial/blue.png' height='500'></p></div>","49","","","","","","","","","","","","","","","","","","","","","","",""
"","html-keyboard-response","13","154215","0.0-13.0","""event"",""trial"",""time""
""fullscreenenter"",""0"",""2106""
","
","
","""event"",""trial"",""time""
""fullscreenenter"",""0"",""2106""
","
","null","<div class='center'><p><img src='run_exp/static/images/tutorial/blue_win.png' height='500'></p></div>","null","","","","","","","","","","","","","","","","","","","","","","",""
"","html-keyboard-response","14","155000","0.0-14.0","""event"",""trial"",""time""
""fullscreenenter"",""0"",""2106""
","
","
","""event"",""trial"",""time""
""fullscreenenter"",""0"",""2106""
","
","782.7999999523163","<div class='center'><img src='run_exp/static/images/tutorial/blue.png' height='500'></p></div>","49","","","","","","","","","","","","","","","","","","","","","","",""
"","html-keyboard-response","15","156519","0.0-15.0","""event"",""trial"",""time""
""fullscreenenter"",""0"",""2106""
","
","
","""event"",""trial"",""time""
""fullscreenenter"",""0"",""2106""
","
","null","<div class='center'><p><img src='run_exp/static/images/tutorial/blue_win.png' height='500'></p></div>","null","","","","","","","","","","","","","","","","","","","","","","",""
"","html-keyboard-response","16","158039","0.0-16.0","""event"",""trial"",""time""
""fullscreenenter"",""0"",""2106""
","
","
","""event"",""trial"",""time""
""fullscreenenter"",""0"",""2106""
","
","1517.7999999523163","<div class='center'><img src='run_exp/static/images/tutorial/blue.png' height='500'></p></div>","49","","","","","","","","","","","","","","","","","","","","","","",""
"","html-keyboard-response","17","159553","0.0-17.0","""event"",""trial"",""time""
""fullscreenenter"",""0"",""2106""
","
","
","""event"",""trial"",""time""
""fullscreenenter"",""0"",""2106""
","
","null","<div class='center'><p><img src='run_exp/static/images/tutorial/blue_no_win.png' height='500'></p></div>","null","","","","","","","","","","","","","","","","","","","","","","",""
"","html-keyboard-response","18","159639","0.0-18.0","""event"",""trial"",""time""
""fullscreenenter"",""0"",""2106""
","
","
","""event"",""trial"",""time""
""fullscreenenter"",""0"",""2106""
","
","83.89999997615814","<div class='center'><img src='run_exp/static/images/tutorial/blue.png' height='500'></p></div>","49","","","","","","","","","","","","","","","","","","","","","","",""
"","html-keyboard-response","19","161151","0.0-19.0","""event"",""trial"",""time""
""fullscreenenter"",""0"",""2106""
","
","
","""event"",""trial"",""time""
""fullscreenenter"",""0"",""2106""
","
","null","<div class='center'><p><img src='run_exp/static/images/tutorial/blue_win.png' height='500'></p></div>","null","","","","","","","","","","","","","","","","","","","","","","",""
"","html-keyboard-response","20","161295","0.0-20.0","""event"",""trial"",""time""
""fullscreenenter"",""0"",""2106""
","
","
","""event"",""trial"",""time""
""fullscreenenter"",""0"",""2106""
","
","142.39999997615814","<div class='center'><img src='run_exp/static/images/tutorial/blue.png' height='500'></p></div>","49","","","","","","","","","","","","","","","","","","","","","","",""
"","html-keyboard-response","21","162800","0.0-21.0","""event"",""trial"",""time""
""fullscreenenter"",""0"",""2106""
","
","
","""event"",""trial"",""time""
""fullscreenenter"",""0"",""2106""
","
","null","<div class='center'><p><img src='run_exp/static/images/tutorial/blue_win.png' height='500'></p></div>","null","","","","","","","","","","","","","","","","","","","","","","",""
"","html-keyboard-response","22","162943","0.0-22.0","""event"",""trial"",""time""
""fullscreenenter"",""0"",""2106""
","
","
","""event"",""trial"",""time""
""fullscreenenter"",""0"",""2106""
","
","140.69999992847443","<div class='center'><img src='run_exp/static/images/tutorial/blue.png' height='500'></p></div>","49","","","","","","","","","","","","","","","","","","","","","","",""
"","html-keyboard-response","23","164452","0.0-23.0","""event"",""trial"",""time""
""fullscreenenter"",""0"",""2106""
","
","
","""event"",""trial"",""time""
""fullscreenenter"",""0"",""2106""
","
","null","<div class='center'><p><img src='run_exp/static/images/tutorial/blue_win.png' height='500'></p></div>","null","","","","","","","","","","","","","","","","","","","","","","",""
"","html-keyboard-response","24","164615","0.0-24.0","""event"",""trial"",""time""
""fullscreenenter"",""0"",""2106""
","
","
","""event"",""trial"",""time""
""fullscreenenter"",""0"",""2106""
","
","160.60000002384186","<div class='center'><img src='run_exp/static/images/tutorial/blue.png' height='500'></p></div>","49","","","","","","","","","","","","","","","","","","","","","","",""
"","html-keyboard-response","25","166124","0.0-25.0","""event"",""trial"",""time""
""fullscreenenter"",""0"",""2106""
","
","
","""event"",""trial"",""time""
""fullscreenenter"",""0"",""2106""
","
","null","<div class='center'><p><img src='run_exp/static/images/tutorial/blue_no_win.png' height='500'></p></div>","null","","","","","","","","","","","","","","","","","","","","","","",""
"","html-keyboard-response","26","166183","0.0-26.0","""event"",""trial"",""time""
""fullscreenenter"",""0"",""2106""
","
","
","""event"",""trial"",""time""
""fullscreenenter"",""0"",""2106""
","
","56.59999990463257","<div class='center'><img src='run_exp/static/images/tutorial/blue.png' height='500'></p></div>","49","","","","","","","","","","","","","","","","","","","","","","",""
"","html-keyboard-response","27","167694","0.0-27.0","""event"",""trial"",""time""
""fullscreenenter"",""0"",""2106""
","
","
","""event"",""trial"",""time""
""fullscreenenter"",""0"",""2106""
","
","null","<div class='center'><p><img src='run_exp/static/images/tutorial/blue_win.png' height='500'></p></div>","null","","","","","","","","","","","","","","","","","","","","","","",""
"","html-keyboard-response","28","167735","0.0-28.0","""event"",""trial"",""time""
""fullscreenenter"",""0"",""2106""
","
","
","""event"",""trial"",""time""
""fullscreenenter"",""0"",""2106""
","
","38.39999997615814","<div class='center'><img src='run_exp/static/images/tutorial/blue.png' height='500'></p></div>","49","","","","","","","","","","","","","","","","","","","","","","",""
"","html-keyboard-response","29","169239","0.0-29.0","""event"",""trial"",""time""
""fullscreenenter"",""0"",""2106""
","
","
","""event"",""trial"",""time""
""fullscreenenter"",""0"",""2106""
","
","null","<div class='center'><p><img src='run_exp/static/images/tutorial/blue_win.png' height='500'></p></div>","null","","","","","","","","","","","","","","","","","","","","","","",""
"","instruc6","30","174904","0.0-30.0","""event"",""trial"",""time""
""fullscreenenter"",""0"",""2106""
","
","
","""event"",""trial"",""time""
""fullscreenenter"",""0"",""2106""
","
","null","run_exp/static/audio/clip_6_blue_beard_outcome.m4a","null","","","","","<div class='center'><p> See, he succeeded in robbing the ships most of the time but not every time. </p></div>","","","","","","","","","","","","","","","","","",""
"","html-keyboard-response","31","176464","0.0-31.0","""event"",""trial"",""time""
""fullscreenenter"",""0"",""2106""
","
","
","""event"",""trial"",""time""
""fullscreenenter"",""0"",""2106""
","
","1558.6000000238419","<div class='center'><p> See, he succeeded in robbing the ships most of the time but not every time. </p><p><b>[Press the space bar to continue]</b></p></div>","32","","","","","","","","","","","","","","","","","","","","","","",""
"","audio-keyboard-response","32","186855","0.0-32.0","""event"",""trial"",""time""
""fullscreenenter"",""0"",""2106""
","
","
","""event"",""trial"",""time""
""fullscreenenter"",""0"",""2106""
","
","10388.200000047684","run_exp/static/audio/clip_7_pick_pirate.m4a","50","","","","","","","","","","","","","","","","","","","","","","",""
"","audio-keyboard-response","33","189655","0.0-33.0-0.0","""event"",""trial"",""time""
""fullscreenenter"",""0"",""2106""
","
","
","""event"",""trial"",""time""
""fullscreenenter"",""0"",""2106""
","
","2793.600000023842","run_exp/static/audio/clip_8_chosen_pirate_win.m4a","32","","","","","","","","","","","","","","","","","","","","","","",""
"","audio-keyboard-response","34","191511","0.0-33.0-1.0","""event"",""trial"",""time""
""fullscreenenter"",""0"",""2106""
","
","
","""event"",""trial"",""time""
""fullscreenenter"",""0"",""2106""
","
","1852.5","run_exp/static/audio/clip_9_pick_a_pirate_again.m4a","50","","","","","","","","","","","","","","","","","","","","","","",""
"","audio-keyboard-response","35","194094","0.0-34.0-0.0","""event"",""trial"",""time""
""fullscreenenter"",""0"",""2106""
","
","
","""event"",""trial"",""time""
""fullscreenenter"",""0"",""2106""
","
","2578.6999999284744","run_exp/static/audio/clip_10_chosen_pirate_loss.m4a","32","","","","","","","","","","","","","","","","","","","","","","",""
"","instruc9","36","199624","0.0-35.0-0.0","""event"",""trial"",""time""
""fullscreenenter"",""0"",""2106""
","
","
","""event"",""trial"",""time""
""fullscreenenter"",""0"",""2106""
","
","null","run_exp/static/audio/clip_11_time_out.m4a","null","","","","","<div class='center'><p>If you don’t make your choice fast enough, you’ll have to wait a few seconds before you can make another one. </p><p><img src='run_exp/static/images/miscellaneous/hurry_up.png' height='500'></p></div>","","","","","","","","","","","","","","","","","",""
"","html-keyboard-response","37","200541","0.0-35.0-1.0","""event"",""trial"",""time""
""fullscreenenter"",""0"",""2106""
","
","
","""event"",""trial"",""time""
""fullscreenenter"",""0"",""2106""
","
","915.4000000953674","<div class='center'><p>If you don’t make your choice fast enough, you’ll have to wait a few seconds before you can make another one. </p><p><img src='run_exp/static/images/miscellaneous/hurry_up.png' height='500'></p><p><b>[Press the space bar to continue]</b></p></div>","32","","","","","","","","","","","","","","","","","","","","","","",""
"","instruc10","38","239644","0.0-35.0-2.0","""event"",""trial"",""time""
""fullscreenenter"",""0"",""2106""
","
","
","""event"",""trial"",""time""
""fullscreenenter"",""0"",""2106""
","
","null","run_exp/static/audio/clip_12_probe.m4a","null","","","","","<div class='center'><p>Once you've chosen a pirate, you’ll be shown the ship they are robbing. You will never rob the same ship twice. Ships can be told apart from one another by the image on them. These are the goods that they sell. See, this ship has a travel mug on it. </p><p> You’ll have to remember which island you saw each ship on. You will win more gold coins and hence more bonus money if you remember correctly! To help you remember, you can imagine a story. For example, here, you could imagine a mug full of water in the desert. Or, as another example, if on the forest island, your pirate robbed a ship with an apple on it, you could imagine an apple falling from a tree in the forest. </p><p><img src='run_exp/static/images/tutorial/example_probe.png' height='500'></p></div>","","","","","","","","","","","","","","","","","",""
"","html-keyboard-response","39","240870","0.0-35.0-3.0","""event"",""trial"",""time""
""fullscreenenter"",""0"",""2106""
","
","
","""event"",""trial"",""time""
""fullscreenenter"",""0"",""2106""
","
","1223.3999999761581","<div class='center'><p>Once you've chosen a pirate, you’ll be shown the ship they are robbing. You will never rob the same ship twice. Ships can be told apart from one another by the image on them. These are the goods that they sell. See, this ship has a travel mug on it. </p><p> You’ll have to remember which island you saw each ship on. You will win more gold coins and hence more bonus money if you remember correctly! To help you remember, you can imagine a story. For example, here, you could imagine a mug full of water in the desert. Or, as another example, if on the forest island, your pirate robbed a ship with an apple on it, you could imagine an apple falling from a tree in the forest. </p><p><img src='run_exp/static/images/tutorial/example_probe.png' height='500'></p><p><b>[Press the space bar to continue]</b></p></div>","32","","","","","","","","","","","","","","","","","","","","","","",""
"","instruc11","40","257304","0.0-35.0-4.0","""event"",""trial"",""time""
""fullscreenenter"",""0"",""2106""
","
","
","""event"",""trial"",""time""
""fullscreenenter"",""0"",""2106""
","
","null","run_exp/static/audio/clip_13_changepoint.m4a","null","","","","","<div class='center'><p>How successful a pirate is at robbing ships will depend on the island you’re on.</p><p> A pirate may have visited this island many times before and gained a lot of practice robbing ships there.</p><p>So, they’re more likely to be successful than a pirate who has never visited the island before.</p></div>","","","","","","","","","","","","","","","","","",""
"","html-keyboard-response","41","258399","0.0-35.0-5.0","""event"",""trial"",""time""
""fullscreenenter"",""0"",""2106""
","
","
","""event"",""trial"",""time""
""fullscreenenter"",""0"",""2106""
","
","1092.3999999761581","<div class='center'><p>How successful a pirate is at robbing ships will depend on the island you’re on.</p><p> A pirate may have visited this island many times before and gained a lot of practice robbing ships there.</p><p>So, they’re more likely to be successful than a pirate who has never visited the island before.</p><p><b>[Press the space bar to continue]</b></p></div>","32","","","","","","","","","","","","","","","","","","","","","","",""
"","instruc12","42","299504","0.0-35.0-6.0","""event"",""trial"",""time""
""fullscreenenter"",""0"",""2106""
","
","
","""event"",""trial"",""time""
""fullscreenenter"",""0"",""2106""
","
","null","run_exp/static/audio/clip_14_drift.m4a","null","","","","","<div class='center'><p>How successful a pirate is at robbing ships can also change over the time spent on the island. </p><p> Ships may hear from islanders about the pirates coming and will improve their protections against the attack. This may make it harder to rob them.</p><p> Ships may also become lazy and weaken the strength of their protections. This may make it easier to rob them.</p><br><p>Things are always changing on the high seas! So, try your best to pay attention!</p><p><img src='run_exp/static/images/tutorial/contingency.png' height='500'></p></div>","","","","","","","","","","","","","","","","","",""
"","html-keyboard-response","43","330153","0.0-35.0-7.0","""event"",""trial"",""time""
""fullscreenenter"",""0"",""2106""
","
","
","""event"",""trial"",""time""
""fullscreenenter"",""0"",""2106""
","
","30645.600000023842","<div class='center'><p>How successful a pirate is at robbing ships can also change over the time spent on the island. </p><p> Ships may hear from islanders about the pirates coming and will improve their protections against the attack. This may make it harder to rob them.</p><p> Ships may also become lazy and weaken the strength of their protections. This may make it easier to rob them.</p><br><p>Things are always changing on the high seas! So, try your best to pay attention!</p><p><img src='run_exp/static/images/tutorial/contingency.png' height='500'></p><p><b>[Press the space bar to continue]</b></p></div>","32","","","","","","","","","","","","","","","","","","","","","","",""
"","instruc13","44","365613","0.0-35.0-8.0","""event"",""trial"",""time""
""fullscreenenter"",""0"",""2106""
","
","
","""event"",""trial"",""time""
""fullscreenenter"",""0"",""2106""
","
","null","run_exp/static/audio/clip_15_summary.m4a","null","","","","","<div class='center'><p>Let's go over the instructions quickly again. You have two important things to do: </p><b><p> 1. Pick the pirate who is the best at robbing ships on the current island. </p></b><b><p> 2. Remember on which island a ship was robbed.</p> </b><p>The amount of bonus money you can win depends on both.</p><p><br><p>Let’s try a practice game. The game will start by showing you the pirates. First, pick a pirate using the <b> 1, 2, 3 </b> keys on your keyboard. When you are shown a ship, try to remember which island you’re on by making up a story.</p><p>This is just a practice game, so you’re not playing for money. </p><p> Good luck! This game will be very difficult but try your best!</p></div>","","","","","","","","","","","","","","","","","",""
"","html-keyboard-response","45","368559","0.0-35.0-9.0","""event"",""trial"",""time""
""fullscreenenter"",""0"",""2106""
","
","
","""event"",""trial"",""time""
""fullscreenenter"",""0"",""2106""
","
","2944.100000023842","<div class='center'><p>Let's go over the instructions quickly again. You have two important things to do: </p><b><p> 1. Pick the pirate who is the best at robbing ships on the current island. </p></b><b><p> 2. Remember on which island a ship was robbed.</p> </b><p>The amount of bonus money you can win depends on both.</p><p><br><p>Let’s try a practice game. The game will start by showing you the pirates. First, pick a pirate using the <b> 1, 2, 3 </b> keys on your keyboard. When you are shown a ship, try to remember which island you’re on by making up a story.</p><p>This is just a practice game, so you’re not playing for money. </p><p> Good luck! This game will be very difficult but try your best!</p><p><b>[Press the space bar to continue]</b></p></div>","32","","","","","","","","","","","","","","","","","","","","","","",""
"","do_welcome","46","372580","0.0-35.0-10.0","""event"",""trial"",""time""
""fullscreenenter"",""0"",""2106""
","
","
","""event"",""trial"",""time""
""fullscreenenter"",""0"",""2106""
","
","null","","","","","","","","null","","","","","","","","","","","","","","","","",""
"","do_trial","47","377692","0.0-35.0-11.0","""event"",""trial"",""time""
""fullscreenenter"",""0"",""2106""
","
","
","""event"",""trial"",""time""
""fullscreenenter"",""0"",""2106""
","
","596.8999999761581","","","","","","","","50","1,0,0","","","","","","","","","","","","","","","",""
"","html-keyboard-response","48","378696","0.0-36.0-0.0","""event"",""trial"",""time""
""fullscreenenter"",""0"",""2106""
","
","
","""event"",""trial"",""time""
""fullscreenenter"",""0"",""2106""
","
","null","<p></p>","null","","","","","","","","","","","","","","","","","","","","","","",""
"","do_trial","49","383705","0.0-36.0-1.0","""event"",""trial"",""time""
""fullscreenenter"",""0"",""2106""
","
","
","""event"",""trial"",""time""
""fullscreenenter"",""0"",""2106""
","
","492.90000009536743","","","","","","","","49","1,1,0","","","","","","","","","","","","","","","",""
"","html-keyboard-response","50","384719","0.0-37.0-0.0","""event"",""trial"",""time""
""fullscreenenter"",""0"",""2106""
","
","
","""event"",""trial"",""time""
""fullscreenenter"",""0"",""2106""
","
","null","<p></p>","null","","","","","","","","","","","","","","","","","","","","","","",""
"","do_trial","51","389609","0.0-37.0-1.0","""event"",""trial"",""time""
""fullscreenenter"",""0"",""2106""
","
","
","""event"",""trial"",""time""
""fullscreenenter"",""0"",""2106""
","
","367.39999997615814","","","","","","","","49","1,0,1","","","","","","","","","","","","","","","",""
"","html-keyboard-response","52","390620","0.0-38.0-0.0","""event"",""trial"",""time""
""fullscreenenter"",""0"",""2106""
","
","
","""event"",""trial"",""time""
""fullscreenenter"",""0"",""2106""
","
","null","<p></p>","null","","","","","","","","","","","","","","","","","","","","","","",""
"","do_trial","53","395470","0.0-38.0-1.0","""event"",""trial"",""time""
""fullscreenenter"",""0"",""2106""
","
","
","""event"",""trial"",""time""
""fullscreenenter"",""0"",""2106""
","
","336.5","","","","","","","","51","0,1,0","","","","","","","","","","","","","","","",""
"","html-keyboard-response","54","396479","0.0-39.0-0.0","""event"",""trial"",""time""
""fullscreenenter"",""0"",""2106""
","
","
","""event"",""trial"",""time""
""fullscreenenter"",""0"",""2106""
","
","null","<p></p>","null","","","","","","","","","","","","","","","","","","","","","","",""
"","do_trial","55","401199","0.0-39.0-1.0","""event"",""trial"",""time""
""fullscreenenter"",""0"",""2106""
","
","
","""event"",""trial"",""time""
""fullscreenenter"",""0"",""2106""
","
","206.40000009536743","","","","","","","","50","1,0,0","","","","","","","","","","","","","","","",""
"","do_bye","56","402711","0.0-40.0-0.0","""event"",""trial"",""time""
""fullscreenenter"",""0"",""2106""
","
","
","""event"",""trial"",""time""
""fullscreenenter"",""0"",""2106""
","
","null","","","","","","","","null","","","","","","","","","","","","","","","","",""
"","do_travel","57","411726","0.0-40.0-1.0","""event"",""trial"",""time""
""fullscreenenter"",""0"",""2106""
","
","
","""event"",""trial"",""time""
""fullscreenenter"",""0"",""2106""
","
","null","","","","","","","","null","","","","","","","","","","","","","","","","",""
"","do_welcome","58","415746","0.0-40.0-2.0","""event"",""trial"",""time""
""fullscreenenter"",""0"",""2106""
","
","
","""event"",""trial"",""time""
""fullscreenenter"",""0"",""2106""
","
","null","","","","","","","","null","","","","","","","","","","","","","","","","",""
"","do_trial","59","421236","0.0-40.0-3.0","""event"",""trial"",""time""
""fullscreenenter"",""0"",""2106""
","
","
","""event"",""trial"",""time""
""fullscreenenter"",""0"",""2106""
","
","968.5","","","","","","","","50","1,0,0","","","","","","","","","","","","","","","",""
"","html-keyboard-response","60","422246","0.0-41.0-0.0","""event"",""trial"",""time""
""fullscreenenter"",""0"",""2106""
","
","
","""event"",""trial"",""time""
""fullscreenenter"",""0"",""2106""
","
","null","<p></p>","null","","","","","","","","","","","","","","","","","","","","","","",""
"","do_trial","61","427066","0.0-41.0-1.0","""event"",""trial"",""time""
""fullscreenenter"",""0"",""2106""
","
","
","""event"",""trial"",""time""
""fullscreenenter"",""0"",""2106""
","
","294","","","","","","","","49","1,0,1","","","","","","","","","","","","","","","",""
"","html-keyboard-response","62","428069","0.0-42.0-0.0","""event"",""trial"",""time""
""fullscreenenter"",""0"",""2106""
","
","
","""event"",""trial"",""time""
""fullscreenenter"",""0"",""2106""
","
","null","<p></p>","null","","","","","","","","","","","","","","","","","","","","","","",""
"","do_trial","63","432680","0.0-42.0-1.0","""event"",""trial"",""time""
""fullscreenenter"",""0"",""2106""
","
","
","""event"",""trial"",""time""
""fullscreenenter"",""0"",""2106""
","
","87.5","","","","","","","","49","1,1,0","","","","","","","","","","","","","","","",""
"","html-keyboard-response","64","433692","0.0-43.0-0.0","""event"",""trial"",""time""
""fullscreenenter"",""0"",""2106""
","
","
","""event"",""trial"",""time""
""fullscreenenter"",""0"",""2106""
","
","null","<p></p>","null","","","","","","","","","","","","","","","","","","","","","","",""
"","do_trial","65","438317","0.0-43.0-1.0","""event"",""trial"",""time""
""fullscreenenter"",""0"",""2106""
","
","
","""event"",""trial"",""time""
""fullscreenenter"",""0"",""2106""
","
","112.5","","","","","","","","50","0,0,1","","","","","","","","","","","","","","","",""
"","html-keyboard-response","66","439325","0.0-44.0-0.0","""event"",""trial"",""time""
""fullscreenenter"",""0"",""2106""
","
","
","""event"",""trial"",""time""
""fullscreenenter"",""0"",""2106""
","
","null","<p></p>","null","","","","","","","","","","","","","","","","","","","","","","",""
"","do_trial","67","443951","0.0-44.0-1.0","""event"",""trial"",""time""
""fullscreenenter"",""0"",""2106""
","
","
","""event"",""trial"",""time""
""fullscreenenter"",""0"",""2106""
","
","111.39999997615814","","","","","","","","51","1,0,1","","","","","","","","","","","","","","","",""
"","html-keyboard-response","68","444255","0.0-45.0-0.0","""event"",""trial"",""time""
""fullscreenenter"",""0"",""2106""
","
","
","""event"",""trial"",""time""
""fullscreenenter"",""0"",""2106""
","
","300.10000002384186","<div class='center'><p><img src='run_exp/static/images/tutorial/prac_best_pirate.png'  height='500'></p></div>","51","","","","","","","","","","","","","","","","","","","","","","",""
"","html-keyboard-response","69","445087","0.0-46.0-0.0","""event"",""trial"",""time""
""fullscreenenter"",""0"",""2106""
","
","
","""event"",""trial"",""time""
""fullscreenenter"",""0"",""2106""
","
","829.5","<div class='center'><p>That's incorrect! Red beard was the best.</p><p><b>[Press the space bar to continue]</b></p></div>","32","","","","","","","","","","","","","","","","","","","","","","",""
"","html-keyboard-response","70","454377","0.0-46.0-1.0","""event"",""trial"",""time""
""fullscreenenter"",""0"",""2106""
","
","
","""event"",""trial"",""time""
""fullscreenenter"",""0"",""2106""
","
","9288.5","<div class='center'><p><img src='run_exp/static/images/tutorial/prac_source.png'  height='500'></p></div>","50","","","","","","","","","","","","","","","","","","","","","","",""
"","html-keyboard-response","71","455631","0.0-47.0-0.0","""event"",""trial"",""time""
""fullscreenenter"",""0"",""2106""
","
","
","""event"",""trial"",""time""
""fullscreenenter"",""0"",""2106""
","
","1251","<div class='center'><p>That's correct! You saw this ship on the cavern island.</p><p><b>[Press the space bar to continue]</b></p></div>","32","","","","","","","","","","","","","","","","","","","","","","",""
"","quiz_beginning","72","467081","0.0-47.0-1.0","""event"",""trial"",""time""
""fullscreenenter"",""0"",""2106""
","
","
","""event"",""trial"",""time""
""fullscreenenter"",""0"",""2106""
","
","null","run_exp/static/audio/clip_16_quiz_intro.m4a","null","","","","","<div class='center'><p>Good job on the practice game! Now, you will be asked some true or false questions to make sure you really understand the rules of the game.</p><p> Press <b>'1'</b> on the keyboard for true and press <b>'2'</b> for false.</p></div>","","","","","","","","","","","","","","","","","",""
"","audio-keyboard-response","73","475010","0.0-47.0-2.0","""event"",""trial"",""time""
""fullscreenenter"",""0"",""2106""
","
","
","""event"",""trial"",""time""
""fullscreenenter"",""0"",""2106""
","
","7925.099999904633","run_exp/static/audio/clip_17_q1.m4a","49","","","","","","","","","","","","","","","","","","","","","","",""
"","correct","74","477441","0.0-48.0-0.0","""event"",""trial"",""time""
""fullscreenenter"",""0"",""2106""
","
","
","""event"",""trial"",""time""
""fullscreenenter"",""0"",""2106""
","
","null","run_exp/static/audio/clip_18_correct.m4a","null","","","","","<div class='center'><p>That's correct!</p></div>","","","","","","","","","","","","","","","","","",""
"","html-keyboard-response","75","478623","0.0-48.0-1.0","""event"",""trial"",""time""
""fullscreenenter"",""0"",""2106""
","
","
","""event"",""trial"",""time""
""fullscreenenter"",""0"",""2106""
","
","1180.5","<div class='center'><p>That's correct!</p><p><b>[Press the space bar to continue]</b></p></div>","32","","","","","","","","","","","","","","","","","","","","","","",""
"","audio-keyboard-response","76","485722","0.0-48.0-2.0","""event"",""trial"",""time""
""fullscreenenter"",""0"",""2106""
","
","
","""event"",""trial"",""time""
""fullscreenenter"",""0"",""2106""
","
","7095.700000047684","run_exp/static/audio/clip_20_q2.m4a","50","","","","","","","","","","","","","","","","","","","","","","",""
"","correct","77","488121","0.0-49.0-0.0","""event"",""trial"",""time""
""fullscreenenter"",""0"",""2106""
","
","
","""event"",""trial"",""time""
""fullscreenenter"",""0"",""2106""
","
","null","run_exp/static/audio/clip_18_correct.m4a","null","","","","","<div class='center'><p>That's correct!</p></div>","","","","","","","","","","","","","","","","","",""
"","html-keyboard-response","78","489599","0.0-49.0-1.0","""event"",""trial"",""time""
""fullscreenenter"",""0"",""2106""
","
","
","""event"",""trial"",""time""
""fullscreenenter"",""0"",""2106""
","
","1476.6000000238419","<div class='center'><p>That's correct!</p><p><b>[Press the space bar to continue]</b></p></div>","32","","","","","","","","","","","","","","","","","","","","","","",""
"","audio-keyboard-response","79","496322","0.0-49.0-2.0","""event"",""trial"",""time""
""fullscreenenter"",""0"",""2106""
","
","
","""event"",""trial"",""time""
""fullscreenenter"",""0"",""2106""
","
","6719","run_exp/static/audio/clip_22_q3.m4a","50","","","","","","","","","","","","","","","","","","","","","","",""
"","correct","80","498722","0.0-50.0-0.0","""event"",""trial"",""time""
""fullscreenenter"",""0"",""2106""
","
","
","""event"",""trial"",""time""
""fullscreenenter"",""0"",""2106""
","
","null","run_exp/static/audio/clip_18_correct.m4a","null","","","","","<div class='center'><p>That's correct!</p></div>","","","","","","","","","","","","","","","","","",""
"","html-keyboard-response","81","500223","0.0-50.0-1.0","""event"",""trial"",""time""
""fullscreenenter"",""0"",""2106""
","
","
","""event"",""trial"",""time""
""fullscreenenter"",""0"",""2106""
","
","1499.7000000476837","<div class='center'><p>That's correct!</p><p><b>[Press the space bar to continue]</b></p></div>","32","","","","","","","","","","","","","","","","","","","","","","",""
"","audio-keyboard-response","82","505215","0.0-50.0-2.0","""event"",""trial"",""time""
""fullscreenenter"",""0"",""2106""
","
","
","""event"",""trial"",""time""
""fullscreenenter"",""0"",""2106""
","
","4989.399999976158","run_exp/static/audio/clip_24_q4.m4a","49","","","","","","","","","","","","","","","","","","","","","","",""
"","correct","83","507662","0.0-51.0-0.0","""event"",""trial"",""time""
""fullscreenenter"",""0"",""2106""
","
","
","""event"",""trial"",""time""
""fullscreenenter"",""0"",""2106""
","
","null","run_exp/static/audio/clip_18_correct.m4a","null","","","","","<div class='center'><p>That's correct!</p></div>","","","","","","","","","","","","","","","","","",""
"","html-keyboard-response","84","508458","0.0-51.0-1.0","""event"",""trial"",""time""
""fullscreenenter"",""0"",""2106""
","
","
","""event"",""trial"",""time""
""fullscreenenter"",""0"",""2106""
","
","795.2000000476837","<div class='center'><p>That's correct!</p><p><b>[Press the space bar to continue]</b></p></div>","32","","","","","","","","","","","","","","","","","","","","","","",""
"","q_all_corr","85","516962","0.0-52.0-0.0","""event"",""trial"",""time""
""fullscreenenter"",""0"",""2106""
","
","
","""event"",""trial"",""time""
""fullscreenenter"",""0"",""2106""
","
","null","run_exp/static/audio/clip_27_quiz_all_correct.m4a","null","","","","","<div class='center'><p>Good job! You’re now ready to move on to the real game! Remember this game will be difficult but don't get discouraged and try your best!</p></div>","","","","","","","","","","","","","","","","","",""
"","html-keyboard-response","86","519010","0.0-52.0-1.0","""event"",""trial"",""time""
""fullscreenenter"",""0"",""2106""
","
","
","""event"",""trial"",""time""
""fullscreenenter"",""0"",""2106""
","
","2046.5","<div class='center'><p>Good job! You’re now ready to move on to the real game! Remember this game will be difficult but don't get discouraged and try your best!</p><p><b>[Press the space bar to continue]</b></p></div>","32","","","","","","","","","","","","","","","","","","","","","","",""
"","do_welcome","87","523030","0.0-53.0-0.0","""event"",""trial"",""time""
""fullscreenenter"",""0"",""2106""
","
","
","""event"",""trial"",""time""
""fullscreenenter"",""0"",""2106""
","
","null","","","","","","","","null","","","","","","","","","","","","","","","","",""
"","do_trial","88","528500","0.0-54.0-0.0","""event"",""trial"",""time""
""fullscreenenter"",""0"",""2106""
","
","
","""event"",""trial"",""time""
""fullscreenenter"",""0"",""2106""
","
","887.8999999761581","","","","","","","","49","0,1,0","0","countryside","0","probe-42","0.6","0.3","0.1","0","","","","","","","",""
"","html-keyboard-response","89","529521","0.0-54.0-1.0","""event"",""trial"",""time""
""fullscreenenter"",""0"",""2106""
","
","
","""event"",""trial"",""time""
""fullscreenenter"",""0"",""2106""
","
","null","<p></p>","null","","","","","","","","","","","","","","","","","","","","","","",""
"","do_trial","90","535708","0.0-55.0-0.0","""event"",""trial"",""time""
""fullscreenenter"",""0"",""2106""
","
","
","""event"",""trial"",""time""
""fullscreenenter"",""0"",""2106""
","
","1621.5","","","","","","","","51","1,0,0","0","countryside","1","probe-212","0.42822324466548223","0.2712248006028994","0.06734980454742084","0","","","","","","","",""
"","html-keyboard-response","91","536716","0.0-55.0-1.0","""event"",""trial"",""time""
""fullscreenenter"",""0"",""2106""
","
","
","""event"",""trial"",""time""
""fullscreenenter"",""0"",""2106""
","
","null","<p></p>","null","","","","","","","","","","","","","","","","","","","","","","",""
"","do_trial","92","541693","0.0-56.0-0.0","""event"",""trial"",""time""
""fullscreenenter"",""0"",""2106""
","
","
","""event"",""trial"",""time""
""fullscreenenter"",""0"",""2106""
","
","407.5","","","","","","","","50","0,0,0","0","countryside","2","probe-29","0.6637808112668035","0.2596281833647475","0.1286250344263394","0","","","","","","","",""
"","html-keyboard-response","93","542709","0.0-56.0-1.0","""event"",""trial"",""time""
""fullscreenenter"",""0"",""2106""
","
","
","""event"",""trial"",""time""
""fullscreenenter"",""0"",""2106""
","
","null","<p></p>","null","","","","","","","","","","","","","","","","","","","","","","",""
"","do_trial","94","547666","0.0-57.0-0.0","""event"",""trial"",""time""
""fullscreenenter"",""0"",""2106""
","
","
","""event"",""trial"",""time""
""fullscreenenter"",""0"",""2106""
","
","381","","","","","","","","49","0,0,0","0","countryside","3","probe-33","0.7049005030729594","0.3080580028434138","0.0841036545704381","0","","","","","","","",""
"","html-keyboard-response","95","548676","0.0-57.0-1.0","""event"",""trial"",""time""
""fullscreenenter"",""0"",""2106""
","
","
","""event"",""trial"",""time""
""fullscreenenter"",""0"",""2106""
","
","null","<p></p>","null","","","","","","","","","","","","","","","","","","","","","","",""
"","do_trial","96","554510","0.0-58.0-0.0","""event"",""trial"",""time""
""fullscreenenter"",""0"",""2106""
","
","
","""event"",""trial"",""time""
""fullscreenenter"",""0"",""2106""
","
","1258","","","","","","","","50","1,0,0","0","countryside","4","probe-124","0.7235635922950292","0.3335943712889091","0.12165020394776073","0","","","","","","","",""
"","html-keyboard-response","97","555526","0.0-58.0-1.0","""event"",""trial"",""time""
""fullscreenenter"",""0"",""2106""
","
","
","""event"",""trial"",""time""
""fullscreenenter"",""0"",""2106""
","
","null","<p></p>","null","","","","","","","","","","","","","","","","","","","","","","",""
"","do_trial","98","560544","0.0-59.0-0.0","""event"",""trial"",""time""
""fullscreenenter"",""0"",""2106""
","
","
","""event"",""trial"",""time""
""fullscreenenter"",""0"",""2106""
","
","434.2000000476837","","","","","","","","49","0,0,0","0","countryside","5","probe-16","0.6958864035051281","0.30245617845396505","0.10828739401258085","0","","","","","","","",""
"","html-keyboard-response","99","561550","0.0-59.0-1.0","""event"",""trial"",""time""
""fullscreenenter"",""0"",""2106""
","
","
","""event"",""trial"",""time""
""fullscreenenter"",""0"",""2106""
","
","null","<p></p>","null","","","","","","","","","","","","","","","","","","","","","","",""
"","do_trial","100","566512","0.0-60.0-0.0","""event"",""trial"",""time""
""fullscreenenter"",""0"",""2106""
","
","
","""event"",""trial"",""time""
""fullscreenenter"",""0"",""2106""
","
","384.39999997615814","","","","","","","","51","1,0,0","0","countryside","6","probe-91","0.6708323456865753","0.21502184733315152","0.08385377552648063","0","","","","","","","",""
"","html-keyboard-response","101","567519","0.0-60.0-1.0","""event"",""trial"",""time""
""fullscreenenter"",""0"",""2106""
","
","
","""event"",""trial"",""time""
""fullscreenenter"",""0"",""2106""
","
","null","<p></p>","null","","","","","","","","","","","","","","","","","","","","","","",""
"","do_trial","102","572193","0.0-61.0-0.0","""event"",""trial"",""time""
""fullscreenenter"",""0"",""2106""
","
","
","""event"",""trial"",""time""
""fullscreenenter"",""0"",""2106""
","
","95.60000002384186","","","","","","","","51","1,1,0","0","countryside","7","probe-202","0.6829917230846975","0.12942196252760876","0.08848610841873863","0","","","","","","","",""
"","html-keyboard-response","103","573196","0.0-61.0-1.0","""event"",""trial"",""time""
""fullscreenenter"",""0"",""2106""
","
","
","""event"",""trial"",""time""
""fullscreenenter"",""0"",""2106""
","
","null","<p></p>","null","","","","","","","","","","","","","","","","","","","","","","",""
"","do_trial","104","577933","0.0-62.0-0.0","""event"",""trial"",""time""
""fullscreenenter"",""0"",""2106""
","
","
","""event"",""trial"",""time""
""fullscreenenter"",""0"",""2106""
","
","167.29999995231628","","","","","","","","50","1,0,1","0","countryside","8","probe-225","0.7537939040798881","0.12538093912693798","0.1690589597508278","0","","","","","","","",""
"","html-keyboard-response","105","578941","0.0-62.0-1.0","""event"",""trial"",""time""
""fullscreenenter"",""0"",""2106""
","
","
","""event"",""trial"",""time""
""fullscreenenter"",""0"",""2106""
","
","null","<p></p>","null","","","","","","","","","","","","","","","","","","","","","","",""
"","do_trial","106","583576","0.0-63.0-0.0","""event"",""trial"",""time""
""fullscreenenter"",""0"",""2106""
","
","
","""event"",""trial"",""time""
""fullscreenenter"",""0"",""2106""
","
","34.39999997615814","","","","","","","","49","0,0,0","0","countryside","9","probe-28","0.8023918139459693","0.1995108915963872","0.05477166654827326","0","","","","","","","",""
"","html-keyboard-response","107","584581","0.0-63.0-1.0","""event"",""trial"",""time""
""fullscreenenter"",""0"",""2106""
","
","
","""event"",""trial"",""time""
""fullscreenenter"",""0"",""2106""
","
","null","<p></p>","null","","","","","","","","","","","","","","","","","","","","","","",""
"","do_trial","108","589153","0.0-64.0-0.0","""event"",""trial"",""time""
""fullscreenenter"",""0"",""2106""
","
","
","""event"",""trial"",""time""
""fullscreenenter"",""0"",""2106""
","
","0.20000004768371582","","","","","","","","49","1,0,0","0","countryside","10","probe-85","0.7351525402681451","0.1978377189499078","0.0996722494420732","1","","","","","","","",""
"","html-keyboard-response","109","590160","0.0-64.0-1.0","""event"",""trial"",""time""
""fullscreenenter"",""0"",""2106""
","
","
","""event"",""trial"",""time""
""fullscreenenter"",""0"",""2106""
","
","null","<p></p>","null","","","","","","","","","","","","","","","","","","","","","","",""
"","do_trial","110","595244","0.0-65.0-0.0","""event"",""trial"",""time""
""fullscreenenter"",""0"",""2106""
","
","
","""event"",""trial"",""time""
""fullscreenenter"",""0"",""2106""
","
","510.2999999523163","","","","","","","","49","1,0,0","0","countryside","11","probe-223","0.7151508281972853","0.23660579952720884","0.06431806705755029","1","","","","","","","",""
"","html-keyboard-response","111","596261","0.0-65.0-1.0","""event"",""trial"",""time""
""fullscreenenter"",""0"",""2106""
","
","
","""event"",""trial"",""time""
""fullscreenenter"",""0"",""2106""
","
","null","<p></p>","null","","","","","","","","","","","","","","","","","","","","","","",""
"","do_trial","112","600848","0.0-66.0-0.0","""event"",""trial"",""time""
""fullscreenenter"",""0"",""2106""
","
","
","""event"",""trial"",""time""
""fullscreenenter"",""0"",""2106""
","
","28.5","","","","","","","","49","1,0,0","0","countryside","12","probe-50","0.7071626110120603","0.2393099651560656","0.09979168959812232","1","","","","","","","",""
"","html-keyboard-response","113","601859","0.0-66.0-1.0","""event"",""trial"",""time""
""fullscreenenter"",""0"",""2106""
","
","
","""event"",""trial"",""time""
""fullscreenenter"",""0"",""2106""
","
","null","<p></p>","null","","","","","","","","","","","","","","","","","","","","","","",""
"","do_trial","114","606669","0.0-67.0-0.0","""event"",""trial"",""time""
""fullscreenenter"",""0"",""2106""
","
","
","""event"",""trial"",""time""
""fullscreenenter"",""0"",""2106""
","
","245.69999992847443","","","","","","","","50","1,0,0","0","countryside","13","probe-22","0.6053547528196207","0.30492793957256076","0.16546801229277183","0","","","","","","","",""
"","html-keyboard-response","115","607671","0.0-67.0-1.0","""event"",""trial"",""time""
""fullscreenenter"",""0"",""2106""
","
","
","""event"",""trial"",""time""
""fullscreenenter"",""0"",""2106""
","
","null","<p></p>","null","","","","","","","","","","","","","","","","","","","","","","",""
"","do_trial","116","612233","0.0-68.0-0.0","""event"",""trial"",""time""
""fullscreenenter"",""0"",""2106""
","
","
","""event"",""trial"",""time""
""fullscreenenter"",""0"",""2106""
","
","0.19999992847442627","","","","","","","","49","1,1,0","0","countryside","14","probe-75","0.640766685465204","0.2997441068061687","0.19797327701181489","1","","","","","","","",""
"","html-keyboard-response","117","613242","0.0-68.0-1.0","""event"",""trial"",""time""
""fullscreenenter"",""0"",""2106""
","
","
","""event"",""trial"",""time""
""fullscreenenter"",""0"",""2106""
","
","null","<p></p>","null","","","","","","","","","","","","","","","","","","","","","","",""
"","do_trial","118","617916","0.0-69.0-0.0","""event"",""trial"",""time""
""fullscreenenter"",""0"",""2106""
","
","
","""event"",""trial"",""time""
""fullscreenenter"",""0"",""2106""
","
","109.5","","","","","","","","49","1,0,0","0","countryside","15","probe-21","0.6071977081989783","0.22328230696038556","0.23141140530030663","1","","","","","","","",""
"","html-keyboard-response","119","618925","0.0-69.0-1.0","""event"",""trial"",""time""
""fullscreenenter"",""0"",""2106""
","
","
","""event"",""trial"",""time""
""fullscreenenter"",""0"",""2106""
","
","null","<p></p>","null","","","","","","","","","","","","","","","","","","","","","","",""
"","do_trial","120","623516","0.0-70.0-0.0","""event"",""trial"",""time""
""fullscreenenter"",""0"",""2106""
","
","
","""event"",""trial"",""time""
""fullscreenenter"",""0"",""2106""
","
","0.19999992847442627","","","","","","","","49","0,0,1","0","countryside","16","probe-108","0.5446865563640942","0.22965874695650754","0.38458951009911146","0","","","","","","","",""
"","html-keyboard-response","121","624525","0.0-70.0-1.0","""event"",""trial"",""time""
""fullscreenenter"",""0"",""2106""
","
","
","""event"",""trial"",""time""
""fullscreenenter"",""0"",""2106""
","
","null","<p></p>","null","","","","","","","","","","","","","","","","","","","","","","",""
"","do_trial","122","629101","0.0-71.0-0.0","""event"",""trial"",""time""
""fullscreenenter"",""0"",""2106""
","
","
","""event"",""trial"",""time""
""fullscreenenter"",""0"",""2106""
","
","11.699999928474426","","","","","","","","49","0,0,0","0","countryside","17","probe-73","0.6155936504621591","0.23832122749412385","0.1574707541148997","0","","","","","","","",""
"","html-keyboard-response","123","630108","0.0-71.0-1.0","""event"",""trial"",""time""
""fullscreenenter"",""0"",""2106""
","
","
","""event"",""trial"",""time""
""fullscreenenter"",""0"",""2106""
","
","null","<p></p>","null","","","","","","","","","","","","","","","","","","","","","","",""
"","do_trial","124","635026","0.0-72.0-0.0","""event"",""trial"",""time""
""fullscreenenter"",""0"",""2106""
","
","
","""event"",""trial"",""time""
""fullscreenenter"",""0"",""2106""
","
","331.60000002384186","","","","","","","","49","0,0,0","0","countryside","18","probe-172","0.49352528512765265","0.23756818345831796","0.08199952388052854","0","","","","","","","",""
"","html-keyboard-response","125","636038","0.0-72.0-1.0","""event"",""trial"",""time""
""fullscreenenter"",""0"",""2106""
","
","
","""event"",""trial"",""time""
""fullscreenenter"",""0"",""2106""
","
","null","<p></p>","null","","","","","","","","","","","","","","","","","","","","","","",""
"","do_trial","126","640675","0.0-73.0-0.0","""event"",""trial"",""time""
""fullscreenenter"",""0"",""2106""
","
","
","""event"",""trial"",""time""
""fullscreenenter"",""0"",""2106""
","
","64.60000002384186","","","","","","","","51","1,0,0","0","countryside","19","probe-169","0.5889535955935032","0.3326307166665043","0.083127705267697","0","","","","","","","",""
"","html-keyboard-response","127","641690","0.0-73.0-1.0","""event"",""trial"",""time""
""fullscreenenter"",""0"",""2106""
","
","
","""event"",""trial"",""time""
""fullscreenenter"",""0"",""2106""
","
","null","<p></p>","null","","","","","","","","","","","","","","","","","","","","","","",""
"","do_trial","128","646267","0.0-74.0-0.0","""event"",""trial"",""time""
""fullscreenenter"",""0"",""2106""
","
","
","""event"",""trial"",""time""
""fullscreenenter"",""0"",""2106""
","
","0.19999992847442627","","","","","","","","51","1,0,0","0","countryside","20","probe-98","0.6288091178283596","0.4141256439382445","0.15127171159098335","0","","","","","","","",""
"","html-keyboard-response","129","647276","0.0-74.0-1.0","""event"",""trial"",""time""
""fullscreenenter"",""0"",""2106""
","
","
","""event"",""trial"",""time""
""fullscreenenter"",""0"",""2106""
","
","null","<p></p>","null","","","","","","","","","","","","","","","","","","","","","","",""
"","do_trial","130","651948","0.0-75.0-0.0","""event"",""trial"",""time""
""fullscreenenter"",""0"",""2106""
","
","
","""event"",""trial"",""time""
""fullscreenenter"",""0"",""2106""
","
","86.39999997615814","","","","","","","","50","1,1,0","0","countryside","21","probe-145","0.5881890241968266","0.4680527695774168","0.11690246133761782","1","","","","","","","",""
"","html-keyboard-response","131","652959","0.0-75.0-1.0","""event"",""trial"",""time""
""fullscreenenter"",""0"",""2106""
","
","
","""event"",""trial"",""time""
""fullscreenenter"",""0"",""2106""
","
","null","<p></p>","null","","","","","","","","","","","","","","","","","","","","","","",""
"","do_trial","132","657650","0.0-76.0-0.0","""event"",""trial"",""time""
""fullscreenenter"",""0"",""2106""
","
","
","""event"",""trial"",""time""
""fullscreenenter"",""0"",""2106""
","
","112.39999997615814","","","","","","","","50","1,1,0","0","countryside","22","probe-136","0.7461686230241142","0.3648360837016681","0.1733330410127131","1","","","","","","","",""
"","html-keyboard-response","133","658659","0.0-76.0-1.0","""event"",""trial"",""time""
""fullscreenenter"",""0"",""2106""
","
","
","""event"",""trial"",""time""
""fullscreenenter"",""0"",""2106""
","
","null","<p></p>","null","","","","","","","","","","","","","","","","","","","","","","",""
"","do_trial","134","663263","0.0-77.0-0.0","""event"",""trial"",""time""
""fullscreenenter"",""0"",""2106""
","
","
","""event"",""trial"",""time""
""fullscreenenter"",""0"",""2106""
","
","45.39999997615814","","","","","","","","50","1,1,0","0","countryside","23","probe-152","0.6525899677663126","0.37318868002579597","0.21008296189609982","1","","","","","","","",""
"","html-keyboard-response","135","664276","0.0-77.0-1.0","""event"",""trial"",""time""
""fullscreenenter"",""0"",""2106""
","
","
","""event"",""trial"",""time""
""fullscreenenter"",""0"",""2106""
","
","null","<p></p>","null","","","","","","","","","","","","","","","","","","","","","","",""
"","do_trial","136","669233","0.0-78.0-0.0","""event"",""trial"",""time""
""fullscreenenter"",""0"",""2106""
","
","
","""event"",""trial"",""time""
""fullscreenenter"",""0"",""2106""
","
","392.7000000476837","","","","","","","","49","0,0,0","0","countryside","24","probe-133","0.44805535949728337","0.29650059901622483","0.22713986065026262","0","","","","","","","",""
"","html-keyboard-response","137","670243","0.0-78.0-1.0","""event"",""trial"",""time""
""fullscreenenter"",""0"",""2106""
","
","
","""event"",""trial"",""time""
""fullscreenenter"",""0"",""2106""
","
","null","<p></p>","null","","","","","","","","","","","","","","","","","","","","","","",""
"","do_trial","138","674811","0.0-79.0-0.0","""event"",""trial"",""time""
""fullscreenenter"",""0"",""2106""
","
","
","""event"",""trial"",""time""
""fullscreenenter"",""0"",""2106""
","
","0.09999990463256836","","","","","","","","50","0,0,0","0","countryside","25","probe-180","0.5471701595799742","0.24943038779263874","0.203987958038921","0","","","","","","","",""
"","html-keyboard-response","139","675815","0.0-79.0-1.0","""event"",""trial"",""time""
""fullscreenenter"",""0"",""2106""
","
","
","""event"",""trial"",""time""
""fullscreenenter"",""0"",""2106""
","
","null","<p></p>","null","","","","","","","","","","","","","","","","","","","","","","",""
"","do_trial","140","680463","0.0-80.0-0.0","""event"",""trial"",""time""
""fullscreenenter"",""0"",""2106""
","
","
","""event"",""trial"",""time""
""fullscreenenter"",""0"",""2106""
","
","76.29999995231628","","","","","","","","51","0,0,0","0","countryside","26","probe-45","0.5699566873486104","0.240474609456","0.18418058541044513","0","","","","","","","",""
"","html-keyboard-response","141","681475","0.0-80.0-1.0","""event"",""trial"",""time""
""fullscreenenter"",""0"",""2106""
","
","
","""event"",""trial"",""time""
""fullscreenenter"",""0"",""2106""
","
","null","<p></p>","null","","","","","","","","","","","","","","","","","","","","","","",""
"","do_trial","142","686042","0.0-81.0-0.0","""event"",""trial"",""time""
""fullscreenenter"",""0"",""2106""
","
","
","""event"",""trial"",""time""
""fullscreenenter"",""0"",""2106""
","
","0.19999992847442627","","","","","","","","49","1,0,1","0","countryside","27","probe-135","0.576809065180847","0.2551408176086483","0.19049676297227203","1","","","","","","","",""
"","html-keyboard-response","143","687059","0.0-81.0-1.0","""event"",""trial"",""time""
""fullscreenenter"",""0"",""2106""
","
","
","""event"",""trial"",""time""
""fullscreenenter"",""0"",""2106""
","
","null","<p></p>","null","","","","","","","","","","","","","","","","","","","","","","",""
"","do_trial","144","691669","0.0-82.0-0.0","""event"",""trial"",""time""
""fullscreenenter"",""0"",""2106""
","
","
","""event"",""trial"",""time""
""fullscreenenter"",""0"",""2106""
","
","42.5","","","","","","","","49","1,0,1","0","countryside","28","probe-197","0.5709735449837252","0.21558360414831768","0.13168352833557018","1","","","","","","","",""
"","html-keyboard-response","145","692677","0.0-82.0-1.0","""event"",""trial"",""time""
""fullscreenenter"",""0"",""2106""
","
","
","""event"",""trial"",""time""
""fullscreenenter"",""0"",""2106""
","
","null","<p></p>","null","","","","","","","","","","","","","","","","","","","","","","",""
"","do_trial","146","697417","0.0-83.0-0.0","""event"",""trial"",""time""
""fullscreenenter"",""0"",""2106""
","
","
","""event"",""trial"",""time""
""fullscreenenter"",""0"",""2106""
","
","159.29999995231628","","","","","","","","50","1,1,0","0","countryside","29","probe-177","0.6920606761836559","0.33881010202277817","0.060036280165868705","1","","","","","","","",""
"","html-keyboard-response","147","698425","0.0-83.0-1.0","""event"",""trial"",""time""
""fullscreenenter"",""0"",""2106""
","
","
","""event"",""trial"",""time""
""fullscreenenter"",""0"",""2106""
","
","null","<p></p>","null","","","","","","","","","","","","","","","","","","","","","","",""
"","do_bye","148","699945","0.0-84.0-0.0","""event"",""trial"",""time""
""fullscreenenter"",""0"",""2106""
","
","
","""event"",""trial"",""time""
""fullscreenenter"",""0"",""2106""
","
","null","","","","","","","","null","","","","","","","","","","","","","","","","",""
"","break","149","701826","0.0-84.0-1.0","""event"",""trial"",""time""
""fullscreenenter"",""0"",""2106""
","
","
","""event"",""trial"",""time""
""fullscreenenter"",""0"",""2106""
","
","1878.8999999761581","<div class='center'><p>Time to take a quick break! You have 2 minutes to rest, but you can move on sooner if you'd like.</p><p> Press the <b>space bar</b> to continue.</p></div>","32","","","","","","","","","","","","","","","","","","","","","","",""
"","do_travel","150","710839","0.0-85.0-0.0","""event"",""trial"",""time""
""fullscreenenter"",""0"",""2106""
","
","
","""event"",""trial"",""time""
""fullscreenenter"",""0"",""2106""
","
","null","","","","","","","","null","","","","","","","","","","","","","","","","",""
"","do_welcome","151","714859","0.0-85.0-1.0","""event"",""trial"",""time""
""fullscreenenter"",""0"",""2106""
","
","
","""event"",""trial"",""time""
""fullscreenenter"",""0"",""2106""
","
","null","","","","","","","","null","","","","","","","","","","","","","","","","",""
"","do_trial","152","720719","0.0-86.0-0.0","""event"",""trial"",""time""
""fullscreenenter"",""0"",""2106""
","
","
","""event"",""trial"",""time""
""fullscreenenter"",""0"",""2106""
","
","1279.3999999761581","","","","","","","","50","1,1,0","1","mountain","30","probe-227","1","0.4327861022655535","0.09377828689083874","1","","","","","","","",""
"","html-keyboard-response","153","721734","0.0-86.0-1.0","""event"",""trial"",""time""
""fullscreenenter"",""0"",""2106""
","
","
","""event"",""trial"",""time""
""fullscreenenter"",""0"",""2106""
","
","null","<p></p>","null","","","","","","","","","","","","","","","","","","","","","","",""
"","do_trial","154","726566","0.0-87.0-0.0","""event"",""trial"",""time""
""fullscreenenter"",""0"",""2106""
","
","
","""event"",""trial"",""time""
""fullscreenenter"",""0"",""2106""
","
","252.39999997615814","","","","","","","","50","1,0,0","1","mountain","31","probe-141","1","0.3625951582755828","0.1674628022362954","0","","","","","","","",""
"","html-keyboard-response","155","727579","0.0-87.0-1.0","""event"",""trial"",""time""
""fullscreenenter"",""0"",""2106""
","
","
","""event"",""trial"",""time""
""fullscreenenter"",""0"",""2106""
","
","null","<p></p>","null","","","","","","","","","","","","","","","","","","","","","","",""
"","do_trial","156","732192","0.0-88.0-0.0","""event"",""trial"",""time""
""fullscreenenter"",""0"",""2106""
","
","
","""event"",""trial"",""time""
""fullscreenenter"",""0"",""2106""
","
","48","","","","","","","","50","1,0,1","1","mountain","32","probe-195","1","0.430325416459747","0.17299147098490678","0","","","","","","","",""
"","html-keyboard-response","157","733208","0.0-88.0-1.0","""event"",""trial"",""time""
""fullscreenenter"",""0"",""2106""
","
","
","""event"",""trial"",""time""
""fullscreenenter"",""0"",""2106""
","
","null","<p></p>","null","","","","","","","","","","","","","","","","","","","","","","",""
"","do_trial","158","738201","0.0-89.0-0.0","""event"",""trial"",""time""
""fullscreenenter"",""0"",""2106""
","
","
","""event"",""trial"",""time""
""fullscreenenter"",""0"",""2106""
","
","419.89999997615814","","","","","","","","51","0,0,0","1","mountain","33","probe-213","0.8039549258455088","0.5081523835705426","0.35476564240397684","0","","","","","","","",""
"","html-keyboard-response","159","739212","0.0-89.0-1.0","""event"",""trial"",""time""
""fullscreenenter"",""0"",""2106""
","
","
","""event"",""trial"",""time""
""fullscreenenter"",""0"",""2106""
","
","null","<p></p>","null","","","","","","","","","","","","","","","","","","","","","","",""
"","do_trial","160","743908","0.0-90.0-0.0","""event"",""trial"",""time""
""fullscreenenter"",""0"",""2106""
","
","
","""event"",""trial"",""time""
""fullscreenenter"",""0"",""2106""
","
","128","","","","","","","","49","1,1,0","1","mountain","34","probe-217","0.5738850685702166","0.469557246645662","0.40445838214222035","1","","","","","","","",""
"","html-keyboard-response","161","744910","0.0-90.0-1.0","""event"",""trial"",""time""
""fullscreenenter"",""0"",""2106""
","
","
","""event"",""trial"",""time""
""fullscreenenter"",""0"",""2106""
","
","null","<p></p>","null","","","","","","","","","","","","","","","","","","","","","","",""
"","do_trial","162","749566","0.0-91.0-0.0","""event"",""trial"",""time""
""fullscreenenter"",""0"",""2106""
","
","
","""event"",""trial"",""time""
""fullscreenenter"",""0"",""2106""
","
","69.20000004768372","","","","","","","","49","1,0,0","1","mountain","35","probe-87","0.5464765713551929","0.4031382407512259","0.1472980703043734","1","","","","","","","",""
"","html-keyboard-response","163","750575","0.0-91.0-1.0","""event"",""trial"",""time""
""fullscreenenter"",""0"",""2106""
","
","
","""event"",""trial"",""time""
""fullscreenenter"",""0"",""2106""
","
","null","<p></p>","null","","","","","","","","","","","","","","","","","","","","","","",""
"","do_trial","164","755445","0.0-92.0-0.0","""event"",""trial"",""time""
""fullscreenenter"",""0"",""2106""
","
","
","""event"",""trial"",""time""
""fullscreenenter"",""0"",""2106""
","
","292","","","","","","","","49","1,1,0","1","mountain","36","probe-36","0.5958526005202017","0.3161018988363749","0.10068817045692371","1","","","","","","","",""
"","html-keyboard-response","165","756462","0.0-92.0-1.0","""event"",""trial"",""time""
""fullscreenenter"",""0"",""2106""
","
","
","""event"",""trial"",""time""
""fullscreenenter"",""0"",""2106""
","
","null","<p></p>","null","","","","","","","","","","","","","","","","","","","","","","",""
"","do_trial","166","761211","0.0-93.0-0.0","""event"",""trial"",""time""
""fullscreenenter"",""0"",""2106""
","
","
","""event"",""trial"",""time""
""fullscreenenter"",""0"",""2106""
","
","176.39999997615814","","","","","","","","49","1,0,0","1","mountain","37","probe-222","0.6420234756950753","0.3617678097831951","0.08832393108223961","1","","","","","","","",""
"","html-keyboard-response","167","762226","0.0-93.0-1.0","""event"",""trial"",""time""
""fullscreenenter"",""0"",""2106""
","
","
","""event"",""trial"",""time""
""fullscreenenter"",""0"",""2106""
","
","null","<p></p>","null","","","","","","","","","","","","","","","","","","","","","","",""
"","do_trial","168","768203","0.0-94.0-0.0","""event"",""trial"",""time""
""fullscreenenter"",""0"",""2106""
","
","
","""event"",""trial"",""time""
""fullscreenenter"",""0"",""2106""
","
","1408.3999999761581","","","","","","","","49","1,0,1","1","mountain","38","probe-191","0.621508209854043","0.15632911233684485","0.09832132232044132","1","","","","","","","",""
"","html-keyboard-response","169","769217","0.0-94.0-1.0","""event"",""trial"",""time""
""fullscreenenter"",""0"",""2106""
","
","
","""event"",""trial"",""time""
""fullscreenenter"",""0"",""2106""
","
","null","<p></p>","null","","","","","","","","","","","","","","","","","","","","","","",""
"","do_trial","170","774099","0.0-95.0-0.0","""event"",""trial"",""time""
""fullscreenenter"",""0"",""2106""
","
","
","""event"",""trial"",""time""
""fullscreenenter"",""0"",""2106""
","
","308.5","","","","","","","","49","0,1,0","1","mountain","39","probe-122","0.6288793837332006","0.18608041575094814","0.15664608392565751","0","","","","","","","",""
"","html-keyboard-response","171","775109","0.0-95.0-1.0","""event"",""trial"",""time""
""fullscreenenter"",""0"",""2106""
","
","
","""event"",""trial"",""time""
""fullscreenenter"",""0"",""2106""
","
","null","<p></p>","null","","","","","","","","","","","","","","","","","","","","","","",""
"","do_trial","172","779915","0.0-96.0-0.0","""event"",""trial"",""time""
""fullscreenenter"",""0"",""2106""
","
","
","""event"",""trial"",""time""
""fullscreenenter"",""0"",""2106""
","
","230.29999995231628","","","","","","","","49","1,0,0","1","mountain","40","probe-176","0.6245971502006077","0.2028972010509303","0.2681066801430525","1","","","","","","","",""
"","html-keyboard-response","173","780925","0.0-96.0-1.0","""event"",""trial"",""time""
""fullscreenenter"",""0"",""2106""
","
","
","""event"",""trial"",""time""
""fullscreenenter"",""0"",""2106""
","
","null","<p></p>","null","","","","","","","","","","","","","","","","","","","","","","",""
"","do_trial","174","785627","0.0-97.0-0.0","""event"",""trial"",""time""
""fullscreenenter"",""0"",""2106""
","
","
","""event"",""trial"",""time""
""fullscreenenter"",""0"",""2106""
","
","126.5","","","","","","","","49","1,0,0","1","mountain","41","probe-123","0.6033813490297795","0.11001354142005079","0.19806118569489137","1","","","","","","","",""
"","html-keyboard-response","175","786645","0.0-97.0-1.0","""event"",""trial"",""time""
""fullscreenenter"",""0"",""2106""
","
","
","""event"",""trial"",""time""
""fullscreenenter"",""0"",""2106""
","
","null","<p></p>","null","","","","","","","","","","","","","","","","","","","","","","",""
"","do_trial","176","791876","0.0-98.0-0.0","""event"",""trial"",""time""
""fullscreenenter"",""0"",""2106""
","
","
","""event"",""trial"",""time""
""fullscreenenter"",""0"",""2106""
","
","661.7000000476837","","","","","","","","49","0,1,0","1","mountain","42","probe-48","0.3846960073739459","0.2356343934258948","0.3116309537691077","0","","","","","","","",""
"","html-keyboard-response","177","792878","0.0-98.0-1.0","""event"",""trial"",""time""
""fullscreenenter"",""0"",""2106""
","
","
","""event"",""trial"",""time""
""fullscreenenter"",""0"",""2106""
","
","null","<p></p>","null","","","","","","","","","","","","","","","","","","","","","","",""
"","do_trial","178","797866","0.0-99.0-0.0","""event"",""trial"",""time""
""fullscreenenter"",""0"",""2106""
","
","
","""event"",""trial"",""time""
""fullscreenenter"",""0"",""2106""
","
","403.10000002384186","","","","","","","","49","1,0,1","1","mountain","43","probe-72","0.12697580354813656","0.36857421096445225","0.40893174631432144","1","","","","","","","",""
"","html-keyboard-response","179","798880","0.0-99.0-1.0","""event"",""trial"",""time""
""fullscreenenter"",""0"",""2106""
","
","
","""event"",""trial"",""time""
""fullscreenenter"",""0"",""2106""
","
","null","<p></p>","null","","","","","","","","","","","","","","","","","","","","","","",""
"","do_trial","180","803450","0.0-100.0-0.0","""event"",""trial"",""time""
""fullscreenenter"",""0"",""2106""
","
","
","""event"",""trial"",""time""
""fullscreenenter"",""0"",""2106""
","
","0.19999992847442627","","","","","","","","49","0,0,1","1","mountain","44","probe-218","0.16055681607906508","0.34652756792503453","0.533954801957771","0","","","","","","","",""
"","html-keyboard-response","181","804458","0.0-100.0-1.0","""event"",""trial"",""time""
""fullscreenenter"",""0"",""2106""
","
","
","""event"",""trial"",""time""
""fullscreenenter"",""0"",""2106""
","
","null","<p></p>","null","","","","","","","","","","","","","","","","","","","","","","",""
"","do_trial","182","810735","0.0-101.0-0.0","""event"",""trial"",""time""
""fullscreenenter"",""0"",""2106""
","
","
","""event"",""trial"",""time""
""fullscreenenter"",""0"",""2106""
","
","1716.3999999761581","","","","","","","","49","1,0,0","1","mountain","45","probe-208","0.06346607168391645","0.3245901174361302","0.5909748075834952","1","","","","","","","",""
"","html-keyboard-response","183","811745","0.0-101.0-1.0","""event"",""trial"",""time""
""fullscreenenter"",""0"",""2106""
","
","
","""event"",""trial"",""time""
""fullscreenenter"",""0"",""2106""
","
","null","<p></p>","null","","","","","","","","","","","","","","","","","","","","","","",""
"","do_trial","184","816726","0.0-102.0-0.0","""event"",""trial"",""time""
""fullscreenenter"",""0"",""2106""
","
","
","""event"",""trial"",""time""
""fullscreenenter"",""0"",""2106""
","
","411.1999999284744","","","","","","","","49","0,1,0","1","mountain","46","probe-101","0.1545590425873342","0.32588163570845324","0.4651344588849252","0","","","","","","","",""
"","html-keyboard-response","185","817728","0.0-102.0-1.0","""event"",""trial"",""time""
""fullscreenenter"",""0"",""2106""
","
","
","""event"",""trial"",""time""
""fullscreenenter"",""0"",""2106""
","
","null","<p></p>","null","","","","","","","","","","","","","","","","","","","","","","",""
"","do_trial","186","822727","0.0-103.0-0.0","""event"",""trial"",""time""
""fullscreenenter"",""0"",""2106""
","
","
","""event"",""trial"",""time""
""fullscreenenter"",""0"",""2106""
","
","437.7000000476837","","","","","","","","49","0,1,1","1","mountain","47","probe-08","0.1053461366643114","0.36155767719350607","0.5746192320410991","0","","","","","","","",""
"","html-keyboard-response","187","823744","0.0-103.0-1.0","""event"",""trial"",""time""
""fullscreenenter"",""0"",""2106""
","
","
","""event"",""trial"",""time""
""fullscreenenter"",""0"",""2106""
","
","null","<p></p>","null","","","","","","","","","","","","","","","","","","","","","","",""
"","do_trial","188","828321","0.0-104.0-0.0","""event"",""trial"",""time""
""fullscreenenter"",""0"",""2106""
","
","
","""event"",""trial"",""time""
""fullscreenenter"",""0"",""2106""
","
","0.20000004768371582","","","","","","","","49","1,1,1","1","mountain","48","probe-132","0.09947981611060001","0.49051021273554435","0.6356253293904957","1","","","","","","","",""
"","html-keyboard-response","189","829328","0.0-104.0-1.0","""event"",""trial"",""time""
""fullscreenenter"",""0"",""2106""
","
","
","""event"",""trial"",""time""
""fullscreenenter"",""0"",""2106""
","
","null","<p></p>","null","","","","","","","","","","","","","","","","","","","","","","",""
"","do_trial","190","834227","0.0-105.0-0.0","""event"",""trial"",""time""
""fullscreenenter"",""0"",""2106""
","
","
","""event"",""trial"",""time""
""fullscreenenter"",""0"",""2106""
","
","333.5","","","","","","","","49","1,1,0","1","mountain","49","probe-41","0.10319559348534656","0.32837085670542837","0.5084890164990307","1","","","","","","","",""
"","html-keyboard-response","191","835230","0.0-105.0-1.0","""event"",""trial"",""time""
""fullscreenenter"",""0"",""2106""
","
","
","""event"",""trial"",""time""
""fullscreenenter"",""0"",""2106""
","
","null","<p></p>","null","","","","","","","","","","","","","","","","","","","","","","",""
"","do_trial","192","840684","0.0-106.0-0.0","""event"",""trial"",""time""
""fullscreenenter"",""0"",""2106""
","
","
","""event"",""trial"",""time""
""fullscreenenter"",""0"",""2106""
","
","875.2000000476837","","","","","","","","49","0,0,1","1","mountain","50","probe-32","0.13891638354225572","0.46198732101341117","0.46342734445380424","0","","","","","","","",""
"","html-keyboard-response","193","841687","0.0-106.0-1.0","""event"",""trial"",""time""
""fullscreenenter"",""0"",""2106""
","
","
","""event"",""trial"",""time""
""fullscreenenter"",""0"",""2106""
","
","null","<p></p>","null","","","","","","","","","","","","","","","","","","","","","","",""
"","do_trial","194","846411","0.0-107.0-0.0","""event"",""trial"",""time""
""fullscreenenter"",""0"",""2106""
","
","
","""event"",""trial"",""time""
""fullscreenenter"",""0"",""2106""
","
","158","","","","","","","","49","0,1,0","1","mountain","51","probe-97","0.1691011512846544","0.48661920376065715","0.5035726982516218","0","","","","","","","",""
"","html-keyboard-response","195","847428","0.0-107.0-1.0","""event"",""trial"",""time""
""fullscreenenter"",""0"",""2106""
","
","
","""event"",""trial"",""time""
""fullscreenenter"",""0"",""2106""
","
","null","<p></p>","null","","","","","","","","","","","","","","","","","","","","","","",""
"","do_trial","196","852159","0.0-108.0-0.0","""event"",""trial"",""time""
""fullscreenenter"",""0"",""2106""
","
","
","""event"",""trial"",""time""
""fullscreenenter"",""0"",""2106""
","
","171.60000002384186","","","","","","","","49","1,1,1","1","mountain","52","probe-09","0.18487806466099357","0.49861247293341443","0.548423406172112","1","","","","","","","",""
"","html-keyboard-response","197","853169","0.0-108.0-1.0","""event"",""trial"",""time""
""fullscreenenter"",""0"",""2106""
","
","
","""event"",""trial"",""time""
""fullscreenenter"",""0"",""2106""
","
","null","<p></p>","null","","","","","","","","","","","","","","","","","","","","","","",""
"","do_trial","198","857766","0.0-109.0-0.0","""event"",""trial"",""time""
""fullscreenenter"",""0"",""2106""
","
","
","""event"",""trial"",""time""
""fullscreenenter"",""0"",""2106""
","
","12.700000047683716","","","","","","","","49","0,1,0","1","mountain","53","probe-52","0.15077281051364394","0.34978325644851893","0.6083572619733191","0","","","","","","","",""
"","html-keyboard-response","199","858777","0.0-109.0-1.0","""event"",""trial"",""time""
""fullscreenenter"",""0"",""2106""
","
","
","""event"",""trial"",""time""
""fullscreenenter"",""0"",""2106""
","
","null","<p></p>","null","","","","","","","","","","","","","","","","","","","","","","",""
"","do_trial","200","863793","0.0-110.0-0.0","""event"",""trial"",""time""
""fullscreenenter"",""0"",""2106""
","
","
","""event"",""trial"",""time""
""fullscreenenter"",""0"",""2106""
","
","435.7000000476837","","","","","","","","49","0,0,1","1","mountain","54","probe-154","0.06278139917168005","0.24442031976725098","0.7369592899385368","0","","","","","","","",""
"","html-keyboard-response","201","864810","0.0-110.0-1.0","""event"",""trial"",""time""
""fullscreenenter"",""0"",""2106""
","
","
","""event"",""trial"",""time""
""fullscreenenter"",""0"",""2106""
","
","null","<p></p>","null","","","","","","","","","","","","","","","","","","","","","","",""
"","do_trial","202","869814","0.0-111.0-0.0","""event"",""trial"",""time""
""fullscreenenter"",""0"",""2106""
","
","
","""event"",""trial"",""time""
""fullscreenenter"",""0"",""2106""
","
","420.6999999284744","","","","","","","","50","0,1,0","1","mountain","55","probe-112","0.0755357136003841","0.4323111278852782","0.5832302475662584","1","","","","","","","",""
"","html-keyboard-response","203","870824","0.0-111.0-1.0","""event"",""trial"",""time""
""fullscreenenter"",""0"",""2106""
","
","
","""event"",""trial"",""time""
""fullscreenenter"",""0"",""2106""
","
","null","<p></p>","null","","","","","","","","","","","","","","","","","","","","","","",""
"","do_trial","204","875869","0.0-112.0-0.0","""event"",""trial"",""time""
""fullscreenenter"",""0"",""2106""
","
","
","""event"",""trial"",""time""
""fullscreenenter"",""0"",""2106""
","
","479","","","","","","","","50","0,0,0","1","mountain","56","probe-150","0.14383534163980444","0.43541258593389687","0.498726109332505","0","","","","","","","",""
"","html-keyboard-response","205","876875","0.0-112.0-1.0","""event"",""trial"",""time""
""fullscreenenter"",""0"",""2106""
","
","
","""event"",""trial"",""time""
""fullscreenenter"",""0"",""2106""
","
","null","<p></p>","null","","","","","","","","","","","","","","","","","","","","","","",""
"","do_trial","206","881957","0.0-113.0-0.0","""event"",""trial"",""time""
""fullscreenenter"",""0"",""2106""
","
","
","""event"",""trial"",""time""
""fullscreenenter"",""0"",""2106""
","
","480.7999999523163","","","","","","","","50","1,0,1","1","mountain","57","probe-12","0.24653840584633166","0.35330484035488263","0.5684058308808888","0","","","","","","","",""
"","html-keyboard-response","207","882960","0.0-113.0-1.0","""event"",""trial"",""time""
""fullscreenenter"",""0"",""2106""
","
","
","""event"",""trial"",""time""
""fullscreenenter"",""0"",""2106""
","
","null","<p></p>","null","","","","","","","","","","","","","","","","","","","","","","",""
"","do_trial","208","887649","0.0-114.0-0.0","""event"",""trial"",""time""
""fullscreenenter"",""0"",""2106""
","
","
","""event"",""trial"",""time""
""fullscreenenter"",""0"",""2106""
","
","112.79999995231628","","","","","","","","50","0,0,1","1","mountain","58","probe-76","0.18407298978923667","0.5366541007860817","0.5608518664507564","0","","","","","","","",""
"","html-keyboard-response","209","888662","0.0-114.0-1.0","""event"",""trial"",""time""
""fullscreenenter"",""0"",""2106""
","
","
","""event"",""trial"",""time""
""fullscreenenter"",""0"",""2106""
","
","null","<p></p>","null","","","","","","","","","","","","","","","","","","","","","","",""
"","do_trial","210","893360","0.0-115.0-0.0","""event"",""trial"",""time""
""fullscreenenter"",""0"",""2106""
","
","
","""event"",""trial"",""time""
""fullscreenenter"",""0"",""2106""
","
","118.60000002384186","","","","","","","","51","0,0,0","1","mountain","59","probe-90","0.08184587029900102","0.5534466641778414","0.7038539414773082","0","","","","","","","",""
"","html-keyboard-response","211","894377","0.0-115.0-1.0","""event"",""trial"",""time""
""fullscreenenter"",""0"",""2106""
","
","
","""event"",""trial"",""time""
""fullscreenenter"",""0"",""2106""
","
","null","<p></p>","null","","","","","","","","","","","","","","","","","","","","","","",""
"","do_trial","212","899117","0.0-116.0-0.0","""event"",""trial"",""time""
""fullscreenenter"",""0"",""2106""
","
","
","""event"",""trial"",""time""
""fullscreenenter"",""0"",""2106""
","
","183.39999997615814","","","","","","","","51","0,0,0","1","mountain","60","probe-214","0.05473452758083521","0.4090764209909966","0.6399591594181339","0","","","","","","","",""
"","html-keyboard-response","213","900126","0.0-116.0-1.0","""event"",""trial"",""time""
""fullscreenenter"",""0"",""2106""
","
","
","""event"",""trial"",""time""
""fullscreenenter"",""0"",""2106""
","
","null","<p></p>","null","","","","","","","","","","","","","","","","","","","","","","",""
"","do_trial","214","904730","0.0-117.0-0.0","""event"",""trial"",""time""
""fullscreenenter"",""0"",""2106""
","
","
","""event"",""trial"",""time""
""fullscreenenter"",""0"",""2106""
","
","28.700000047683716","","","","","","","","51","0,1,1","1","mountain","61","probe-210","0.09507004327934584","0.35220151566844743","0.6416521640655202","1","","","","","","","",""
"","html-keyboard-response","215","905743","0.0-117.0-1.0","""event"",""trial"",""time""
""fullscreenenter"",""0"",""2106""
","
","
","""event"",""trial"",""time""
""fullscreenenter"",""0"",""2106""
","
","null","<p></p>","null","","","","","","","","","","","","","","","","","","","","","","",""
"","do_trial","216","910334","0.0-118.0-0.0","""event"",""trial"",""time""
""fullscreenenter"",""0"",""2106""
","
","
","""event"",""trial"",""time""
""fullscreenenter"",""0"",""2106""
","
","25","","","","","","","","51","0,0,1","1","mountain","62","probe-60","0.10026999161564845","0.30057215391854614","0.5260082015493919","1","","","","","","","",""
"","html-keyboard-response","217","911340","0.0-118.0-1.0","""event"",""trial"",""time""
""fullscreenenter"",""0"",""2106""
","
","
","""event"",""trial"",""time""
""fullscreenenter"",""0"",""2106""
","
","null","<p></p>","null","","","","","","","","","","","","","","","","","","","","","","",""
"","do_trial","218","915983","0.0-119.0-0.0","""event"",""trial"",""time""
""fullscreenenter"",""0"",""2106""
","
","
","""event"",""trial"",""time""
""fullscreenenter"",""0"",""2106""
","
","75.39999997615814","","","","","","","","51","0,0,0","1","mountain","63","probe-179","0.12270061072845315","0.24581538369226572","0.5718620793607359","0","","","","","","","",""
"","html-keyboard-response","219","916991","0.0-119.0-1.0","""event"",""trial"",""time""
""fullscreenenter"",""0"",""2106""
","
","
","""event"",""trial"",""time""
""fullscreenenter"",""0"",""2106""
","
","null","<p></p>","null","","","","","","","","","","","","","","","","","","","","","","",""
"","do_trial","220","921711","0.0-120.0-0.0","""event"",""trial"",""time""
""fullscreenenter"",""0"",""2106""
","
","
","""event"",""trial"",""time""
""fullscreenenter"",""0"",""2106""
","
","160.10000002384186","","","","","","","","50","0,0,1","1","mountain","64","probe-39","0.08048183619084569","0.22679621543102366","0.5252446987359612","0","","","","","","","",""
"","html-keyboard-response","221","922727","0.0-120.0-1.0","""event"",""trial"",""time""
""fullscreenenter"",""0"",""2106""
","
","
","""event"",""trial"",""time""
""fullscreenenter"",""0"",""2106""
","
","null","<p></p>","null","","","","","","","","","","","","","","","","","","","","","","",""
"","do_trial","222","928795","0.0-121.0-0.0","""event"",""trial"",""time""
""fullscreenenter"",""0"",""2106""
","
","
","""event"",""trial"",""time""
""fullscreenenter"",""0"",""2106""
","
","null","","","","","","","","null","0,0,0","1","mountain","65","probe-163","0.07833715671073889","0.3243827953988462","0.6130858644048367","","","","","","","","",""
"","html-keyboard-response","223","929809","0.0-121.0-1.0","""event"",""trial"",""time""
""fullscreenenter"",""0"",""2106""
","
","
","""event"",""trial"",""time""
""fullscreenenter"",""0"",""2106""
","
","null","<p></p>","null","","","","","","","","","","","","","","","","","","","","","","",""
"","do_trial","224","934444","0.0-122.0-0.0","""event"",""trial"",""time""
""fullscreenenter"",""0"",""2106""
","
","
","""event"",""trial"",""time""
""fullscreenenter"",""0"",""2106""
","
","96.39999997615814","","","","","","","","49","0,1,1","1","mountain","66","probe-109","0.1894684813972202","0.346906066767426","0.6911372538252936","0","","","","","","","",""
"","html-keyboard-response","225","935459","0.0-122.0-1.0","""event"",""trial"",""time""
""fullscreenenter"",""0"",""2106""
","
","
","""event"",""trial"",""time""
""fullscreenenter"",""0"",""2106""
","
","null","<p></p>","null","","","","","","","","","","","","","","","","","","","","","","",""
"","do_trial","226","940055","0.0-123.0-0.0","""event"",""trial"",""time""
""fullscreenenter"",""0"",""2106""
","
","
","""event"",""trial"",""time""
""fullscreenenter"",""0"",""2106""
","
","16","","","","","","","","49","1,0,1","1","mountain","67","probe-194","0.32064905016908124","0.43179340795610827","0.5039825710102963","1","","","","","","","",""
"","html-keyboard-response","227","941061","0.0-123.0-1.0","""event"",""trial"",""time""
""fullscreenenter"",""0"",""2106""
","
","
","""event"",""trial"",""time""
""fullscreenenter"",""0"",""2106""
","
","null","<p></p>","null","","","","","","","","","","","","","","","","","","","","","","",""
"","do_trial","228","945715","0.0-124.0-0.0","""event"",""trial"",""time""
""fullscreenenter"",""0"",""2106""
","
","
","""event"",""trial"",""time""
""fullscreenenter"",""0"",""2106""
","
","76.39999997615814","","","","","","","","49","0,1,1","1","mountain","68","probe-114","0.20149212952818993","0.5510871467015224","0.6239473339519134","0","","","","","","","",""
"","html-keyboard-response","229","946726","0.0-124.0-1.0","""event"",""trial"",""time""
""fullscreenenter"",""0"",""2106""
","
","
","""event"",""trial"",""time""
""fullscreenenter"",""0"",""2106""
","
","null","<p></p>","null","","","","","","","","","","","","","","","","","","","","","","",""
"","do_trial","230","951389","0.0-125.0-0.0","""event"",""trial"",""time""
""fullscreenenter"",""0"",""2106""
","
","
","""event"",""trial"",""time""
""fullscreenenter"",""0"",""2106""
","
","80.10000002384186","","","","","","","","49","0,1,0","1","mountain","69","probe-66","0.18847551980403648","0.5220740184841082","0.5087670146408643","0","","","","","","","",""
"","html-keyboard-response","231","952394","0.0-125.0-1.0","""event"",""trial"",""time""
""fullscreenenter"",""0"",""2106""
","
","
","""event"",""trial"",""time""
""fullscreenenter"",""0"",""2106""
","
","null","<p></p>","null","","","","","","","","","","","","","","","","","","","","","","",""
"","do_bye","232","953912","0.0-126.0-0.0","""event"",""trial"",""time""
""fullscreenenter"",""0"",""2106""
","
","
","""event"",""trial"",""time""
""fullscreenenter"",""0"",""2106""
","
","null","","","","","","","","null","","","","","","","","","","","","","","","","",""
"","break","233","963912","0.0-126.0-1.0","""event"",""trial"",""time""
""fullscreenenter"",""0"",""2106""
","
","
","""event"",""trial"",""time""
""fullscreenenter"",""0"",""2106""
","
","9997.899999976158","<div class='center'><p>Time to take a quick break! You have 2 minutes to rest, but you can move on sooner if you'd like.</p><p> Press the <b>space bar</b> to continue.</p></div>","32","","","","","","","","","","","","","","","","","","","","","","",""
"","do_travel","234","972926","0.0-127.0-0.0","""event"",""trial"",""time""
""fullscreenenter"",""0"",""2106""
","
","
","""event"",""trial"",""time""
""fullscreenenter"",""0"",""2106""
","
","null","","","","","","","","null","","","","","","","","","","","","","","","","",""
"","do_welcome","235","976937","0.0-127.0-1.0","""event"",""trial"",""time""
""fullscreenenter"",""0"",""2106""
","
","
","""event"",""trial"",""time""
""fullscreenenter"",""0"",""2106""
","
","null","","","","","","","","null","","","","","","","","","","","","","","","","",""
"","do_trial","236","984377","0.0-128.0-0.0","""event"",""trial"",""time""
""fullscreenenter"",""0"",""2106""
","
","
","""event"",""trial"",""time""
""fullscreenenter"",""0"",""2106""
","
","2884.7999999523163","","","","","","","","49","0,1,1","2","coast","70","probe-226","0.19767827600320448","0.6201056240652733","1","0","","","","","","","",""
"","html-keyboard-response","237","985387","0.0-128.0-1.0","""event"",""trial"",""time""
""fullscreenenter"",""0"",""2106""
","
","
","""event"",""trial"",""time""
""fullscreenenter"",""0"",""2106""
","
","null","<p></p>","null","","","","","","","","","","","","","","","","","","","","","","",""
"","do_trial","238","990172","0.0-129.0-0.0","""event"",""trial"",""time""
""fullscreenenter"",""0"",""2106""
","
","
","""event"",""trial"",""time""
""fullscreenenter"",""0"",""2106""
","
","217.79999995231628","","","","","","","","50","1,0,1","2","coast","71","probe-38","0.11064643652955468","0.4627357077440092","1","0","","","","","","","",""
"","html-keyboard-response","239","991182","0.0-129.0-1.0","""event"",""trial"",""time""
""fullscreenenter"",""0"",""2106""
","
","
","""event"",""trial"",""time""
""fullscreenenter"",""0"",""2106""
","
","null","<p></p>","null","","","","","","","","","","","","","","","","","","","","","","",""
"","do_trial","240","995761","0.0-130.0-0.0","""event"",""trial"",""time""
""fullscreenenter"",""0"",""2106""
","
","
","""event"",""trial"",""time""
""fullscreenenter"",""0"",""2106""
","
","0.10000002384185791","","","","","","","","50","0,0,1","2","coast","72","probe-55","0.23048941252590374","0.37869278150887037","0.779364229610388","0","","","","","","","",""
"","html-keyboard-response","241","996777","0.0-130.0-1.0","""event"",""trial"",""time""
""fullscreenenter"",""0"",""2106""
","
","
","""event"",""trial"",""time""
""fullscreenenter"",""0"",""2106""
","
","null","<p></p>","null","","","","","","","","","","","","","","","","","","","","","","",""
"","do_trial","242","1001368","0.0-131.0-0.0","""event"",""trial"",""time""
""fullscreenenter"",""0"",""2106""
","
","
","""event"",""trial"",""time""
""fullscreenenter"",""0"",""2106""
","
","0.10000002384185791","","","","","","","","50","0,0,1","2","coast","73","probe-120","0.11012043229723652","0.33046767754755324","0.7677695418754695","0","","","","","","","",""
"","html-keyboard-response","243","1002383","0.0-131.0-1.0","""event"",""trial"",""time""
""fullscreenenter"",""0"",""2106""
","
","
","""event"",""trial"",""time""
""fullscreenenter"",""0"",""2106""
","
","null","<p></p>","null","","","","","","","","","","","","","","","","","","","","","","",""
"","do_trial","244","1006977","0.0-132.0-0.0","""event"",""trial"",""time""
""fullscreenenter"",""0"",""2106""
","
","
","""event"",""trial"",""time""
""fullscreenenter"",""0"",""2106""
","
","0.30000007152557373","","","","","","","","50","0,0,1","2","coast","74","probe-153","0.182225325132976","0.28163382515059654","0.7073901713565828","0","","","","","","","",""
"","html-keyboard-response","245","1007980","0.0-132.0-1.0","""event"",""trial"",""time""
""fullscreenenter"",""0"",""2106""
","
","
","""event"",""trial"",""time""
""fullscreenenter"",""0"",""2106""
","
","null","<p></p>","null","","","","","","","","","","","","","","","","","","","","","","",""
"","do_trial","246","1012565","0.0-133.0-0.0","""event"",""trial"",""time""
""fullscreenenter"",""0"",""2106""
","
","
","""event"",""trial"",""time""
""fullscreenenter"",""0"",""2106""
","
","0.09999990463256836","","","","","","","","51","1,0,1","2","coast","75","probe-20","0.23242825583811366","0.1237209496677858","0.6724398166081638","1","","","","","","","",""
"","html-keyboard-response","247","1013576","0.0-133.0-1.0","""event"",""trial"",""time""
""fullscreenenter"",""0"",""2106""
","
","
","""event"",""trial"",""time""
""fullscreenenter"",""0"",""2106""
","
","null","<p></p>","null","","","","","","","","","","","","","","","","","","","","","","",""
"","do_trial","248","1018183","0.0-134.0-0.0","""event"",""trial"",""time""
""fullscreenenter"",""0"",""2106""
","
","
","""event"",""trial"",""time""
""fullscreenenter"",""0"",""2106""
","
","35.5","","","","","","","","51","1,0,1","2","coast","76","probe-35","0.2457776000643353","0.3126579421563134","0.5247937051264298","1","","","","","","","",""
"","html-keyboard-response","249","1019194","0.0-134.0-1.0","""event"",""trial"",""time""
""fullscreenenter"",""0"",""2106""
","
","
","""event"",""trial"",""time""
""fullscreenenter"",""0"",""2106""
","
","null","<p></p>","null","","","","","","","","","","","","","","","","","","","","","","",""
"","do_trial","250","1024230","0.0-135.0-0.0","""event"",""trial"",""time""
""fullscreenenter"",""0"",""2106""
","
","
","""event"",""trial"",""time""
""fullscreenenter"",""0"",""2106""
","
","477.7000000476837","","","","","","","","51","1,0,1","2","coast","77","probe-02","0.24311736611082688","0.1656338388228648","0.4468383317274061","1","","","","","","","",""
"","html-keyboard-response","251","1025242","0.0-135.0-1.0","""event"",""trial"",""time""
""fullscreenenter"",""0"",""2106""
","
","
","""event"",""trial"",""time""
""fullscreenenter"",""0"",""2106""
","
","null","<p></p>","null","","","","","","","","","","","","","","","","","","","","","","",""
"","do_trial","252","1030033","0.0-136.0-0.0","""event"",""trial"",""time""
""fullscreenenter"",""0"",""2106""
","
","
","""event"",""trial"",""time""
""fullscreenenter"",""0"",""2106""
","
","209","","","","","","","","51","0,0,1","2","coast","78","probe-189","0.0536965401641341","0.20789019801059883","0.5234377101702702","1","","","","","","","",""
"","html-keyboard-response","253","1031044","0.0-136.0-1.0","""event"",""trial"",""time""
""fullscreenenter"",""0"",""2106""
","
","
","""event"",""trial"",""time""
""fullscreenenter"",""0"",""2106""
","
","null","<p></p>","null","","","","","","","","","","","","","","","","","","","","","","",""
"","do_trial","254","1035636","0.0-137.0-0.0","""event"",""trial"",""time""
""fullscreenenter"",""0"",""2106""
","
","
","""event"",""trial"",""time""
""fullscreenenter"",""0"",""2106""
","
","36.5","","","","","","","","51","0,1,0","2","coast","79","probe-190","0.1319524030833739","0.38754180212715356","0.5804191179595574","0","","","","","","","",""
"","html-keyboard-response","255","1036643","0.0-137.0-1.0","""event"",""trial"",""time""
""fullscreenenter"",""0"",""2106""
","
","
","""event"",""trial"",""time""
""fullscreenenter"",""0"",""2106""
","
","null","<p></p>","null","","","","","","","","","","","","","","","","","","","","","","",""
"","do_trial","256","1042000","0.0-138.0-0.0","""event"",""trial"",""time""
""fullscreenenter"",""0"",""2106""
","
","
","""event"",""trial"",""time""
""fullscreenenter"",""0"",""2106""
","
","768.5","","","","","","","","51","0,0,1","2","coast","80","probe-118","0.15500164307129172","0.38903472360137964","0.5878929293930244","1","","","","","","","",""
"","html-keyboard-response","257","1043010","0.0-138.0-1.0","""event"",""trial"",""time""
""fullscreenenter"",""0"",""2106""
","
","
","""event"",""trial"",""time""
""fullscreenenter"",""0"",""2106""
","
","null","<p></p>","null","","","","","","","","","","","","","","","","","","","","","","",""
"","do_trial","258","1048837","0.0-139.0-0.0","""event"",""trial"",""time""
""fullscreenenter"",""0"",""2106""
","
","
","""event"",""trial"",""time""
""fullscreenenter"",""0"",""2106""
","
","1254.2000000476837","","","","","","","","51","0,0,0","2","coast","81","probe-04","0.21784960351998084","0.5049572763741522","0.5957285552772287","0","","","","","","","",""
"","html-keyboard-response","259","1049845","0.0-139.0-1.0","""event"",""trial"",""time""
""fullscreenenter"",""0"",""2106""
","
","
","""event"",""trial"",""time""
""fullscreenenter"",""0"",""2106""
","
","null","<p></p>","null","","","","","","","","","","","","","","","","","","","","","","",""
"","do_trial","260","1055918","0.0-140.0-0.0","""event"",""trial"",""time""
""fullscreenenter"",""0"",""2106""
","
","
","""event"",""trial"",""time""
""fullscreenenter"",""0"",""2106""
","
","null","","","","","","","","null","0,0,1","2","coast","82","probe-127","0.12332180443046087","0.5339640121103376","0.22964083369184207","","","","","","","","",""
"","html-keyboard-response","261","1056927","0.0-140.0-1.0","""event"",""trial"",""time""
""fullscreenenter"",""0"",""2106""
","
","
