"success","trial_type","trial_index","time_elapsed","internal_node_id","interactions","blur_events","focus_events","fullscreenenter_events","fullscreenexit_events","rt","stimulus","key_press","subject_id","participant_id","age","gender","prompt","response","choice_outcomes","context_n","context_img_id","trial_n","probe_img_id","pR_red","pR_white","pR_black","outcome","contextArray_ind","validImageProbes","invalidImageProbes","pRew_Red","pRew_White","pRew_Black","availableForMemProbe","choice_blocks"
"true","fullscreen","0","2986","0.0-0.0","""event"",""trial"",""time""
""fullscreenenter"",""0"",""2002""
","
","
","""event"",""trial"",""time""
""fullscreenenter"",""0"",""2002""
","
","","","","","","","","","","","","","","","","","","","","","","","","","",""
"","pavlovia","1","2993","0.0-1.0","""event"",""trial"",""time""
""fullscreenenter"",""0"",""2002""
","
","
","""event"",""trial"",""time""
""fullscreenenter"",""0"",""2002""
","
","","","","","","","","","","","","","","","","","","","","","","","","","",""
"","instruc1","2","48067","0.0-2.0","""event"",""trial"",""time""
""fullscreenenter"",""0"",""2002""
","
","
","""event"",""trial"",""time""
""fullscreenenter"",""0"",""2002""
","
","null","run_exp/static/audio/clip_1_welcome.m4a","null","2468","2430","19","Male","<div class='center'><p>Welcome! This is the first part of the study. It will last ~30 minutes. In part 1 and part 2 of the study, you are the head captain of a pirate ship traveling around the world to different islands. You will play a few different games throughout these two parts. Here is an overview of them:</p><br><p>Part 1 (today)</p><p>1. Instructions, practice game, and quiz</p><p>2. Pick a pirate game on 6 different islands</p><br><p>Part 2 (tomorrow)</p><p>3. Pick a pirate game and memory game</p><p>4. Where did you see this ship? </p></div>","","","","","","","","","","","","","","","","","",""
"","html-keyboard-response","3","48313","0.0-3.0","""event"",""trial"",""time""
""fullscreenenter"",""0"",""2002""
","
","
","""event"",""trial"",""time""
""fullscreenenter"",""0"",""2002""
","
","244.70000004768372","<div class='center'><p>Welcome! This is the first part of the study. It will last ~30 minutes. In part 1 and part 2 of the study, you are the head captain of a pirate ship traveling around the world to different islands. You will play a few different games throughout these two parts. Here is an overview of them:</p><br><p>Part 1 (today)</p><p>1. Instructions, practice game, and quiz</p><p>2. Pick a pirate game on 6 different islands</p><br><p>Part 2 (tomorrow)</p><p>3. Pick a pirate game and memory game</p><p>4. Where did you see this ship? </p><p><b>[Press the space bar to continue]</b></p></div>","32","","","","","","","","","","","","","","","","","","","","","","",""
"","instruc2","4","53635","0.0-4.0","""event"",""trial"",""time""
""fullscreenenter"",""0"",""2002""
","
","
","""event"",""trial"",""time""
""fullscreenenter"",""0"",""2002""
","
","null","run_exp/static/audio/clip_2_different_places.m4a","null","","","","","<div class='center'><p>Today, you’ll visit these 6 islands on your journey. You'll be able to see these islands from your ship.</p><p><img src='run_exp/static/images/contexts/all_contexts.png' height='500'></p></div>","","","","","","","","","","","","","","","","","",""
"","html-keyboard-response","5","55016","0.0-5.0","""event"",""trial"",""time""
""fullscreenenter"",""0"",""2002""
","
","
","""event"",""trial"",""time""
""fullscreenenter"",""0"",""2002""
","
","1379.8999998569489","<div class='center'><p>Today, you’ll visit these 6 islands on your journey. You'll be able to see these islands from your ship.</p><p><img src='run_exp/static/images/contexts/all_contexts.png' height='500'></p><p><b>[Press the space bar to continue]</b></p></div>","32","","","","","","","","","","","","","","","","","","","","","","",""
"","instruc3","6","64707","0.0-6.0","""event"",""trial"",""time""
""fullscreenenter"",""0"",""2002""
","
","
","""event"",""trial"",""time""
""fullscreenenter"",""0"",""2002""
","
","null","run_exp/static/audio/clip_3_goal_of_game_1.m4a","null","","","","","<div class='center'><p> The pirates on your ship will rob other ships as they leave the island.</p> These ships have just sold their goods to the islanders, so they will be filled with lots and lots of gold.</p><p><img src='run_exp/static/images/tutorial/ship_center.png' height='400'></p></div>","","","","","","","","","","","","","","","","","",""
"","html-keyboard-response","7","65857","0.0-7.0","""event"",""trial"",""time""
""fullscreenenter"",""0"",""2002""
","
","
","""event"",""trial"",""time""
""fullscreenenter"",""0"",""2002""
","
","1148.8000001907349","<div class='center'><p> The pirates on your ship will rob other ships as they leave the island.</p> These ships have just sold their goods to the islanders, so they will be filled with lots and lots of gold.</p><p><img src='run_exp/static/images/tutorial/ship_center.png' height='400'></p><p><b>[Press the space bar to continue]</b></p></div>","32","","","","","","","","","","","","","","","","","","","","","","",""
"","instruc4","8","93849","0.0-8.0","""event"",""trial"",""time""
""fullscreenenter"",""0"",""2002""
","
","
","""event"",""trial"",""time""
""fullscreenenter"",""0"",""2002""
","
","null","run_exp/static/audio/clip_4_goal_of_game_2.m4a","null","","","","","<div class='center'><p>As the head captain, you do not have to rob any ships yourself. Another pirate will be doing the robbing for you. First, you will choose a pirate to rob the next ship.</p><p><img src='run_exp/static/images/tutorial/pirates_all_crop.png' height='200'></p><p>Then, you'll see if the pirate successfully robbed the ship of their gold. If they were successful, then you'll get a stack of gold coins like this:</p><p><img src='run_exp/static/images/tutorial/reward.png' height='150'></p><p> If they were <b>not</b> successful, then you'll get no gold coins, and you'll see a big red x like this: </p><p><img src='run_exp/static/images/tutorial/reward_no.png' height='150'></p><p> How much bonus money you make is based on how many gold coins you collect.</p><div>","","","","","","","","","","","","","","","","","",""
"","html-keyboard-response","9","95673","0.0-9.0","""event"",""trial"",""time""
""fullscreenenter"",""0"",""2002""
","
","
","""event"",""trial"",""time""
""fullscreenenter"",""0"",""2002""
","
","1822.3999998569489","<div class='center'><p>As the head captain, you do not have to rob any ships yourself. Another pirate will be doing the robbing for you. First, you will choose a pirate to rob the next ship.</p><p><img src='run_exp/static/images/tutorial/pirates_all_crop.png' height='200'></p><p>Then, you'll see if the pirate successfully robbed the ship of their gold. If they were successful, then you'll get a stack of gold coins like this:</p><p><img src='run_exp/static/images/tutorial/reward.png' height='150'></p><p> If they were <b>not</b> successful, then you'll get no gold coins, and you'll see a big red x like this: </p><p><img src='run_exp/static/images/tutorial/reward_no.png' height='150'></p><p> How much bonus money you make is based on how many gold coins you collect.</p<p><b>[Press the space bar to continue]</b></p></div>","32","","","","","","","","","","","","","","","","","","","","","","",""
"","instruc5","10","111441","0.0-10.0","""event"",""trial"",""time""
""fullscreenenter"",""0"",""2002""
","
","
","""event"",""trial"",""time""
""fullscreenenter"",""0"",""2002""
","
","15767","run_exp/static/audio/clip_5_probabilistic.m4a","49","","","","","<div class='center'><p>Even the most skilled pirate can not rob EVERY ship.</p><p> Some ships will have very strong protections against pirate attacks.</p><p> Blue beard, here, is very, very good at robbing ships, but he won't be successful every time he tries to rob one.</p><p> You can press the <b>‘1’</b> key on the keyboard to choose him.</p><p> Try choosing him 10 times to see how often he succeeds at robbing a ship. </p><p><img src='run_exp/static/images/tutorial/blue.png' height='500'></p></div>","","","","","","","","","","","","","","","","","",""
"","html-keyboard-response","11","112942","0.0-11.0","""event"",""trial"",""time""
""fullscreenenter"",""0"",""2002""
","
","
","""event"",""trial"",""time""
""fullscreenenter"",""0"",""2002""
","
","null","<div class='center'><p><img src='run_exp/static/images/tutorial/blue_win.png' height='500'></p></div>","null","","","","","","","","","","","","","","","","","","","","","","",""
"","html-keyboard-response","12","113552","0.0-12.0","""event"",""trial"",""time""
""fullscreenenter"",""0"",""2002""
","
","
","""event"",""trial"",""time""
""fullscreenenter"",""0"",""2002""
","
","608.7999999523163","<div class='center'><img src='run_exp/static/images/tutorial/blue.png' height='500'></p></div>","49","","","","","","","","","","","","","","","","","","","","","","",""
"","html-keyboard-response","13","115064","0.0-13.0","""event"",""trial"",""time""
""fullscreenenter"",""0"",""2002""
","
","
","""event"",""trial"",""time""
""fullscreenenter"",""0"",""2002""
","
","null","<div class='center'><p><img src='run_exp/static/images/tutorial/blue_win.png' height='500'></p></div>","null","","","","","","","","","","","","","","","","","","","","","","",""
"","html-keyboard-response","14","115929","0.0-14.0","""event"",""trial"",""time""
""fullscreenenter"",""0"",""2002""
","
","
","""event"",""trial"",""time""
""fullscreenenter"",""0"",""2002""
","
","863.7999999523163","<div class='center'><img src='run_exp/static/images/tutorial/blue.png' height='500'></p></div>","49","","","","","","","","","","","","","","","","","","","","","","",""
"","html-keyboard-response","15","117431","0.0-15.0","""event"",""trial"",""time""
""fullscreenenter"",""0"",""2002""
","
","
","""event"",""trial"",""time""
""fullscreenenter"",""0"",""2002""
","
","null","<div class='center'><p><img src='run_exp/static/images/tutorial/blue_win.png' height='500'></p></div>","null","","","","","","","","","","","","","","","","","","","","","","",""
"","html-keyboard-response","16","117809","0.0-16.0","""event"",""trial"",""time""
""fullscreenenter"",""0"",""2002""
","
","
","""event"",""trial"",""time""
""fullscreenenter"",""0"",""2002""
","
","377.2000000476837","<div class='center'><img src='run_exp/static/images/tutorial/blue.png' height='500'></p></div>","49","","","","","","","","","","","","","","","","","","","","","","",""
"","html-keyboard-response","17","119315","0.0-17.0","""event"",""trial"",""time""
""fullscreenenter"",""0"",""2002""
","
","
","""event"",""trial"",""time""
""fullscreenenter"",""0"",""2002""
","
","null","<div class='center'><p><img src='run_exp/static/images/tutorial/blue_no_win.png' height='500'></p></div>","null","","","","","","","","","","","","","","","","","","","","","","",""
"","html-keyboard-response","18","119769","0.0-18.0","""event"",""trial"",""time""
""fullscreenenter"",""0"",""2002""
","
","
","""event"",""trial"",""time""
""fullscreenenter"",""0"",""2002""
","
","452.2999999523163","<div class='center'><img src='run_exp/static/images/tutorial/blue.png' height='500'></p></div>","49","","","","","","","","","","","","","","","","","","","","","","",""
"","html-keyboard-response","19","121270","0.0-19.0","""event"",""trial"",""time""
""fullscreenenter"",""0"",""2002""
","
","
","""event"",""trial"",""time""
""fullscreenenter"",""0"",""2002""
","
","null","<div class='center'><p><img src='run_exp/static/images/tutorial/blue_win.png' height='500'></p></div>","null","","","","","","","","","","","","","","","","","","","","","","",""
"","html-keyboard-response","20","121961","0.0-20.0","""event"",""trial"",""time""
""fullscreenenter"",""0"",""2002""
","
","
","""event"",""trial"",""time""
""fullscreenenter"",""0"",""2002""
","
","689.5999999046326","<div class='center'><img src='run_exp/static/images/tutorial/blue.png' height='500'></p></div>","49","","","","","","","","","","","","","","","","","","","","","","",""
"","html-keyboard-response","21","123475","0.0-21.0","""event"",""trial"",""time""
""fullscreenenter"",""0"",""2002""
","
","
","""event"",""trial"",""time""
""fullscreenenter"",""0"",""2002""
","
","null","<div class='center'><p><img src='run_exp/static/images/tutorial/blue_win.png' height='500'></p></div>","null","","","","","","","","","","","","","","","","","","","","","","",""
"","html-keyboard-response","22","123897","0.0-22.0","""event"",""trial"",""time""
""fullscreenenter"",""0"",""2002""
","
","
","""event"",""trial"",""time""
""fullscreenenter"",""0"",""2002""
","
","420.09999990463257","<div class='center'><img src='run_exp/static/images/tutorial/blue.png' height='500'></p></div>","49","","","","","","","","","","","","","","","","","","","","","","",""
"","html-keyboard-response","23","125400","0.0-23.0","""event"",""trial"",""time""
""fullscreenenter"",""0"",""2002""
","
","
","""event"",""trial"",""time""
""fullscreenenter"",""0"",""2002""
","
","null","<div class='center'><p><img src='run_exp/static/images/tutorial/blue_win.png' height='500'></p></div>","null","","","","","","","","","","","","","","","","","","","","","","",""
"","html-keyboard-response","24","125840","0.0-24.0","""event"",""trial"",""time""
""fullscreenenter"",""0"",""2002""
","
","
","""event"",""trial"",""time""
""fullscreenenter"",""0"",""2002""
","
","439.5","<div class='center'><img src='run_exp/static/images/tutorial/blue.png' height='500'></p></div>","49","","","","","","","","","","","","","","","","","","","","","","",""
"","html-keyboard-response","25","127345","0.0-25.0","""event"",""trial"",""time""
""fullscreenenter"",""0"",""2002""
","
","
","""event"",""trial"",""time""
""fullscreenenter"",""0"",""2002""
","
","null","<div class='center'><p><img src='run_exp/static/images/tutorial/blue_no_win.png' height='500'></p></div>","null","","","","","","","","","","","","","","","","","","","","","","",""
"","html-keyboard-response","26","127865","0.0-26.0","""event"",""trial"",""time""
""fullscreenenter"",""0"",""2002""
","
","
","""event"",""trial"",""time""
""fullscreenenter"",""0"",""2002""
","
","517.8999998569489","<div class='center'><img src='run_exp/static/images/tutorial/blue.png' height='500'></p></div>","49","","","","","","","","","","","","","","","","","","","","","","",""
"","html-keyboard-response","27","129380","0.0-27.0","""event"",""trial"",""time""
""fullscreenenter"",""0"",""2002""
","
","
","""event"",""trial"",""time""
""fullscreenenter"",""0"",""2002""
","
","null","<div class='center'><p><img src='run_exp/static/images/tutorial/blue_win.png' height='500'></p></div>","null","","","","","","","","","","","","","","","","","","","","","","",""
"","html-keyboard-response","28","129801","0.0-28.0","""event"",""trial"",""time""
""fullscreenenter"",""0"",""2002""
","
","
","""event"",""trial"",""time""
""fullscreenenter"",""0"",""2002""
","
","419.7999999523163","<div class='center'><img src='run_exp/static/images/tutorial/blue.png' height='500'></p></div>","49","","","","","","","","","","","","","","","","","","","","","","",""
"","html-keyboard-response","29","131314","0.0-29.0","""event"",""trial"",""time""
""fullscreenenter"",""0"",""2002""
","
","
","""event"",""trial"",""time""
""fullscreenenter"",""0"",""2002""
","
","null","<div class='center'><p><img src='run_exp/static/images/tutorial/blue_win.png' height='500'></p></div>","null","","","","","","","","","","","","","","","","","","","","","","",""
"","instruc6","30","136832","0.0-30.0","""event"",""trial"",""time""
""fullscreenenter"",""0"",""2002""
","
","
","""event"",""trial"",""time""
""fullscreenenter"",""0"",""2002""
","
","null","run_exp/static/audio/clip_6_blue_beard_outcome.m4a","null","","","","","<div class='center'><p> See, he succeeded in robbing the ships most of the time but not every time. </p></div>","","","","","","","","","","","","","","","","","",""
"","html-keyboard-response","31","138105","0.0-31.0","""event"",""trial"",""time""
""fullscreenenter"",""0"",""2002""
","
","
","""event"",""trial"",""time""
""fullscreenenter"",""0"",""2002""
","
","1271.8999998569489","<div class='center'><p> See, he succeeded in robbing the ships most of the time but not every time. </p><p><b>[Press the space bar to continue]</b></p></div>","32","","","","","","","","","","","","","","","","","","","","","","",""
"","audio-keyboard-response","32","152257","0.0-32.0","""event"",""trial"",""time""
""fullscreenenter"",""0"",""2002""
","
","
","""event"",""trial"",""time""
""fullscreenenter"",""0"",""2002""
","
","14150.299999952316","run_exp/static/audio/clip_7_pick_pirate.m4a","49","","","","","","","","","","","","","","","","","","","","","","",""
"","audio-keyboard-response","33","156218","0.0-33.0-0.0","""event"",""trial"",""time""
""fullscreenenter"",""0"",""2002""
","
","
","""event"",""trial"",""time""
""fullscreenenter"",""0"",""2002""
","
","3959.899999856949","run_exp/static/audio/clip_8_chosen_pirate_win.m4a","32","","","","","","","","","","","","","","","","","","","","","","",""
"","audio-keyboard-response","34","158329","0.0-33.0-1.0","""event"",""trial"",""time""
""fullscreenenter"",""0"",""2002""
","
","
","""event"",""trial"",""time""
""fullscreenenter"",""0"",""2002""
","
","2110.0999999046326","run_exp/static/audio/clip_9_pick_a_pirate_again.m4a","50","","","","","","","","","","","","","","","","","","","","","","",""
"","audio-keyboard-response","35","162905","0.0-34.0-0.0","""event"",""trial"",""time""
""fullscreenenter"",""0"",""2002""
","
","
","""event"",""trial"",""time""
""fullscreenenter"",""0"",""2002""
","
","4574.400000095367","run_exp/static/audio/clip_10_chosen_pirate_loss.m4a","32","","","","","","","","","","","","","","","","","","","","","","",""
"","instruc9","36","168385","0.0-35.0-0.0","""event"",""trial"",""time""
""fullscreenenter"",""0"",""2002""
","
","
","""event"",""trial"",""time""
""fullscreenenter"",""0"",""2002""
","
","null","run_exp/static/audio/clip_11_time_out.m4a","null","","","","","<div class='center'><p>If you don’t make your choice fast enough, you’ll have to wait a few seconds before you can make another one. </p><p><img src='run_exp/static/images/miscellaneous/hurry_up.png' height='500'></p></div>","","","","","","","","","","","","","","","","","",""
"","html-keyboard-response","37","169322","0.0-35.0-1.0","""event"",""trial"",""time""
""fullscreenenter"",""0"",""2002""
","
","
","""event"",""trial"",""time""
""fullscreenenter"",""0"",""2002""
","
","935.6000001430511","<div class='center'><p>If you don’t make your choice fast enough, you’ll have to wait a few seconds before you can make another one. </p><p><img src='run_exp/static/images/miscellaneous/hurry_up.png' height='500'></p><p><b>[Press the space bar to continue]</b></p></div>","32","","","","","","","","","","","","","","","","","","","","","","",""
"","instruc10","38","208407","0.0-35.0-2.0","""event"",""trial"",""time""
""fullscreenenter"",""0"",""2002""
","
","
","""event"",""trial"",""time""
""fullscreenenter"",""0"",""2002""
","
","null","run_exp/static/audio/clip_12_probe.m4a","null","","","","","<div class='center'><p>Once you've chosen a pirate, you’ll be shown the ship they are robbing. You will never rob the same ship twice. Ships can be told apart from one another by the image on them. These are the goods that they sell. See, this ship has a travel mug on it. </p><p> You’ll have to remember which island you saw each ship on. You will win more gold coins and hence more bonus money if you remember correctly! To help you remember, you can imagine a story. For example, here, you could imagine a mug full of water in the desert. Or, as another example, if on the forest island, your pirate robbed a ship with an apple on it, you could imagine an apple falling from a tree in the forest. </p><p><img src='run_exp/static/images/tutorial/example_probe.png' height='500'></p></div>","","","","","","","","","","","","","","","","","",""
"","html-keyboard-response","39","210545","0.0-35.0-3.0","""event"",""trial"",""time""
""fullscreenenter"",""0"",""2002""
","
","
","""event"",""trial"",""time""
""fullscreenenter"",""0"",""2002""
","
","2137.2999999523163","<div class='center'><p>Once you've chosen a pirate, you’ll be shown the ship they are robbing. You will never rob the same ship twice. Ships can be told apart from one another by the image on them. These are the goods that they sell. See, this ship has a travel mug on it. </p><p> You’ll have to remember which island you saw each ship on. You will win more gold coins and hence more bonus money if you remember correctly! To help you remember, you can imagine a story. For example, here, you could imagine a mug full of water in the desert. Or, as another example, if on the forest island, your pirate robbed a ship with an apple on it, you could imagine an apple falling from a tree in the forest. </p><p><img src='run_exp/static/images/tutorial/example_probe.png' height='500'></p><p><b>[Press the space bar to continue]</b></p></div>","32","","","","","","","","","","","","","","","","","","","","","","",""
"","instruc11","40","226944","0.0-35.0-4.0","""event"",""trial"",""time""
""fullscreenenter"",""0"",""2002""
","
","
","""event"",""trial"",""time""
""fullscreenenter"",""0"",""2002""
","
","null","run_exp/static/audio/clip_13_changepoint.m4a","null","","","","","<div class='center'><p>How successful a pirate is at robbing ships will depend on the island you’re on.</p><p> A pirate may have visited this island many times before and gained a lot of practice robbing ships there.</p><p>So, they’re more likely to be successful than a pirate who has never visited the island before.</p></div>","","","","","","","","","","","","","","","","","",""
"","html-keyboard-response","41","227320","0.0-35.0-5.0","""event"",""trial"",""time""
""fullscreenenter"",""0"",""2002""
","
","
","""event"",""trial"",""time""
""fullscreenenter"",""0"",""2002""
","
","375.2999999523163","<div class='center'><p>How successful a pirate is at robbing ships will depend on the island you’re on.</p><p> A pirate may have visited this island many times before and gained a lot of practice robbing ships there.</p><p>So, they’re more likely to be successful than a pirate who has never visited the island before.</p><p><b>[Press the space bar to continue]</b></p></div>","32","","","","","","","","","","","","","","","","","","","","","","",""
"","instruc12","42","268416","0.0-35.0-6.0","""event"",""trial"",""time""
""fullscreenenter"",""0"",""2002""
""fullscreenexit"",""43"",""278478""
","
","
","""event"",""trial"",""time""
""fullscreenenter"",""0"",""2002""
","""event"",""trial"",""time""
""fullscreenexit"",""43"",""278478""
","null","run_exp/static/audio/clip_14_drift.m4a","null","","","","","<div class='center'><p>How successful a pirate is at robbing ships can also change over the time spent on the island. </p><p> Ships may hear from islanders about the pirates coming and will improve their protections against the attack. This may make it harder to rob them.</p><p> Ships may also become lazy and weaken the strength of their protections. This may make it easier to rob them.</p><br><p>Things are always changing on the high seas! So, try your best to pay attention!</p><p><img src='run_exp/static/images/tutorial/contingency.png' height='500'></p></div>","","","","","","","","","","","","","","","","","",""
"","html-keyboard-response","43","288216","0.0-35.0-7.0","""event"",""trial"",""time""
""fullscreenenter"",""0"",""2002""
""fullscreenexit"",""43"",""278478""
","
","
","""event"",""trial"",""time""
""fullscreenenter"",""0"",""2002""
","""event"",""trial"",""time""
""fullscreenexit"",""43"",""278478""
","19798.400000095367","<div class='center'><p>How successful a pirate is at robbing ships can also change over the time spent on the island. </p><p> Ships may hear from islanders about the pirates coming and will improve their protections against the attack. This may make it harder to rob them.</p><p> Ships may also become lazy and weaken the strength of their protections. This may make it easier to rob them.</p><br><p>Things are always changing on the high seas! So, try your best to pay attention!</p><p><img src='run_exp/static/images/tutorial/contingency.png' height='500'></p><p><b>[Press the space bar to continue]</b></p></div>","32","","","","","","","","","","","","","","","","","","","","","","",""
"","instruc13","44","323643","0.0-35.0-8.0","""event"",""trial"",""time""
""fullscreenenter"",""0"",""2002""
""fullscreenexit"",""43"",""278478""
","
","
","""event"",""trial"",""time""
""fullscreenenter"",""0"",""2002""
","""event"",""trial"",""time""
""fullscreenexit"",""43"",""278478""
","null","run_exp/static/audio/clip_15_summary.m4a","null","","","","","<div class='center'><p>Let's go over the instructions quickly again. You have two important things to do: </p><b><p> 1. Pick the pirate who is the best at robbing ships on the current island. </p></b><b><p> 2. Remember on which island a ship was robbed.</p> </b><p>The amount of bonus money you can win depends on both.</p><p><br><p>Let’s try a practice game. The game will start by showing you the pirates. First, pick a pirate using the <b> 1, 2, 3 </b> keys on your keyboard. When you are shown a ship, try to remember which island you’re on by making up a story.</p><p>This is just a practice game, so you’re not playing for money. </p><p> Good luck! This game will be very difficult but try your best!</p></div>","","","","","","","","","","","","","","","","","",""
"","html-keyboard-response","45","324537","0.0-35.0-9.0","""event"",""trial"",""time""
""fullscreenenter"",""0"",""2002""
""fullscreenexit"",""43"",""278478""
","
","
","""event"",""trial"",""time""
""fullscreenenter"",""0"",""2002""
","""event"",""trial"",""time""
""fullscreenexit"",""43"",""278478""
","892.2000000476837","<div class='center'><p>Let's go over the instructions quickly again. You have two important things to do: </p><b><p> 1. Pick the pirate who is the best at robbing ships on the current island. </p></b><b><p> 2. Remember on which island a ship was robbed.</p> </b><p>The amount of bonus money you can win depends on both.</p><p><br><p>Let’s try a practice game. The game will start by showing you the pirates. First, pick a pirate using the <b> 1, 2, 3 </b> keys on your keyboard. When you are shown a ship, try to remember which island you’re on by making up a story.</p><p>This is just a practice game, so you’re not playing for money. </p><p> Good luck! This game will be very difficult but try your best!</p><p><b>[Press the space bar to continue]</b></p></div>","32","","","","","","","","","","","","","","","","","","","","","","",""
"","do_welcome","46","328541","0.0-35.0-10.0","""event"",""trial"",""time""
""fullscreenenter"",""0"",""2002""
""fullscreenexit"",""43"",""278478""
","
","
","""event"",""trial"",""time""
""fullscreenenter"",""0"",""2002""
","""event"",""trial"",""time""
""fullscreenexit"",""43"",""278478""
","null","","","","","","","","null","","","","","","","","","","","","","","","","",""
"","do_trial","47","334142","0.0-35.0-11.0","""event"",""trial"",""time""
""fullscreenenter"",""0"",""2002""
""fullscreenexit"",""43"",""278478""
","
","
","""event"",""trial"",""time""
""fullscreenenter"",""0"",""2002""
","""event"",""trial"",""time""
""fullscreenexit"",""43"",""278478""
","1095.4000000953674","","","","","","","","49","1,0,0","","","","","","","","","","","","","","","",""
"","html-keyboard-response","48","335150","0.0-36.0-0.0","""event"",""trial"",""time""
""fullscreenenter"",""0"",""2002""
""fullscreenexit"",""43"",""278478""
","
","
","""event"",""trial"",""time""
""fullscreenenter"",""0"",""2002""
","""event"",""trial"",""time""
""fullscreenexit"",""43"",""278478""
","null","<p></p>","null","","","","","","","","","","","","","","","","","","","","","","",""
"","do_trial","49","341014","0.0-36.0-1.0","""event"",""trial"",""time""
""fullscreenenter"",""0"",""2002""
""fullscreenexit"",""43"",""278478""
","
","
","""event"",""trial"",""time""
""fullscreenenter"",""0"",""2002""
","""event"",""trial"",""time""
""fullscreenexit"",""43"",""278478""
","1359.5","","","","","","","","50","1,1,0","","","","","","","","","","","","","","","",""
"","html-keyboard-response","50","342016","0.0-37.0-0.0","""event"",""trial"",""time""
""fullscreenenter"",""0"",""2002""
""fullscreenexit"",""43"",""278478""
","
","
","""event"",""trial"",""time""
""fullscreenenter"",""0"",""2002""
","""event"",""trial"",""time""
""fullscreenexit"",""43"",""278478""
","null","<p></p>","null","","","","","","","","","","","","","","","","","","","","","","",""
"","do_trial","51","348163","0.0-37.0-1.0","""event"",""trial"",""time""
""fullscreenenter"",""0"",""2002""
""fullscreenexit"",""43"",""278478""
","
","
","""event"",""trial"",""time""
""fullscreenenter"",""0"",""2002""
","""event"",""trial"",""time""
""fullscreenexit"",""43"",""278478""
","1638","","","","","","","","51","1,0,1","","","","","","","","","","","","","","","",""
"","html-keyboard-response","52","349171","0.0-38.0-0.0","""event"",""trial"",""time""
""fullscreenenter"",""0"",""2002""
""fullscreenexit"",""43"",""278478""
","
","
","""event"",""trial"",""time""
""fullscreenenter"",""0"",""2002""
","""event"",""trial"",""time""
""fullscreenexit"",""43"",""278478""
","null","<p></p>","null","","","","","","","","","","","","","","","","","","","","","","",""
"","do_trial","53","354009","0.0-38.0-1.0","""event"",""trial"",""time""
""fullscreenenter"",""0"",""2002""
""fullscreenexit"",""43"",""278478""
","
","
","""event"",""trial"",""time""
""fullscreenenter"",""0"",""2002""
","""event"",""trial"",""time""
""fullscreenexit"",""43"",""278478""
","322.39999985694885","","","","","","","","49","0,1,0","","","","","","","","","","","","","","","",""
"","html-keyboard-response","54","355018","0.0-39.0-0.0","""event"",""trial"",""time""
""fullscreenenter"",""0"",""2002""
""fullscreenexit"",""43"",""278478""
","
","
","""event"",""trial"",""time""
""fullscreenenter"",""0"",""2002""
","""event"",""trial"",""time""
""fullscreenexit"",""43"",""278478""
","null","<p></p>","null","","","","","","","","","","","","","","","","","","","","","","",""
"","do_trial","55","360066","0.0-39.0-1.0","""event"",""trial"",""time""
""fullscreenenter"",""0"",""2002""
""fullscreenexit"",""43"",""278478""
","
","
","""event"",""trial"",""time""
""fullscreenenter"",""0"",""2002""
","""event"",""trial"",""time""
""fullscreenexit"",""43"",""278478""
","530.0999999046326","","","","","","","","50","1,0,0","","","","","","","","","","","","","","","",""
"","do_bye","56","361581","0.0-40.0-0.0","""event"",""trial"",""time""
""fullscreenenter"",""0"",""2002""
""fullscreenexit"",""43"",""278478""
","
","
","""event"",""trial"",""time""
""fullscreenenter"",""0"",""2002""
","""event"",""trial"",""time""
""fullscreenexit"",""43"",""278478""
","null","","","","","","","","null","","","","","","","","","","","","","","","","",""
"","do_travel","57","370587","0.0-40.0-1.0","""event"",""trial"",""time""
""fullscreenenter"",""0"",""2002""
""fullscreenexit"",""43"",""278478""
","
","
","""event"",""trial"",""time""
""fullscreenenter"",""0"",""2002""
","""event"",""trial"",""time""
""fullscreenexit"",""43"",""278478""
","null","","","","","","","","null","","","","","","","","","","","","","","","","",""
"","do_welcome","58","374592","0.0-40.0-2.0","""event"",""trial"",""time""
""fullscreenenter"",""0"",""2002""
""fullscreenexit"",""43"",""278478""
","
","
","""event"",""trial"",""time""
""fullscreenenter"",""0"",""2002""
","""event"",""trial"",""time""
""fullscreenexit"",""43"",""278478""
","null","","","","","","","","null","","","","","","","","","","","","","","","","",""
"","do_trial","59","380081","0.0-40.0-3.0","""event"",""trial"",""time""
""fullscreenenter"",""0"",""2002""
""fullscreenexit"",""43"",""278478""
","
","
","""event"",""trial"",""time""
""fullscreenenter"",""0"",""2002""
","""event"",""trial"",""time""
""fullscreenexit"",""43"",""278478""
","980.4000000953674","","","","","","","","49","1,0,0","","","","","","","","","","","","","","","",""
"","html-keyboard-response","60","381092","0.0-41.0-0.0","""event"",""trial"",""time""
""fullscreenenter"",""0"",""2002""
""fullscreenexit"",""43"",""278478""
","
","
","""event"",""trial"",""time""
""fullscreenenter"",""0"",""2002""
","""event"",""trial"",""time""
""fullscreenexit"",""43"",""278478""
","null","<p></p>","null","","","","","","","","","","","","","","","","","","","","","","",""
"","do_trial","61","386325","0.0-41.0-1.0","""event"",""trial"",""time""
""fullscreenenter"",""0"",""2002""
""fullscreenexit"",""43"",""278478""
","
","
","""event"",""trial"",""time""
""fullscreenenter"",""0"",""2002""
","""event"",""trial"",""time""
""fullscreenexit"",""43"",""278478""
","729.1000001430511","","","","","","","","50","1,0,1","","","","","","","","","","","","","","","",""
"","html-keyboard-response","62","387335","0.0-42.0-0.0","""event"",""trial"",""time""
""fullscreenenter"",""0"",""2002""
""fullscreenexit"",""43"",""278478""
","
","
","""event"",""trial"",""time""
""fullscreenenter"",""0"",""2002""
","""event"",""trial"",""time""
""fullscreenexit"",""43"",""278478""
","null","<p></p>","null","","","","","","","","","","","","","","","","","","","","","","",""
"","do_trial","63","392109","0.0-42.0-1.0","""event"",""trial"",""time""
""fullscreenenter"",""0"",""2002""
""fullscreenexit"",""43"",""278478""
","
","
","""event"",""trial"",""time""
""fullscreenenter"",""0"",""2002""
","""event"",""trial"",""time""
""fullscreenexit"",""43"",""278478""
","270","","","","","","","","49","1,1,0","","","","","","","","","","","","","","","",""
"","html-keyboard-response","64","393113","0.0-43.0-0.0","""event"",""trial"",""time""
""fullscreenenter"",""0"",""2002""
""fullscreenexit"",""43"",""278478""
","
","
","""event"",""trial"",""time""
""fullscreenenter"",""0"",""2002""
","""event"",""trial"",""time""
""fullscreenexit"",""43"",""278478""
","null","<p></p>","null","","","","","","","","","","","","","","","","","","","","","","",""
"","do_trial","65","397925","0.0-43.0-1.0","""event"",""trial"",""time""
""fullscreenenter"",""0"",""2002""
""fullscreenexit"",""43"",""278478""
","
","
","""event"",""trial"",""time""
""fullscreenenter"",""0"",""2002""
","""event"",""trial"",""time""
""fullscreenexit"",""43"",""278478""
","308.40000009536743","","","","","","","","51","0,0,1","","","","","","","","","","","","","","","",""
"","html-keyboard-response","66","398927","0.0-44.0-0.0","""event"",""trial"",""time""
""fullscreenenter"",""0"",""2002""
""fullscreenexit"",""43"",""278478""
","
","
","""event"",""trial"",""time""
""fullscreenenter"",""0"",""2002""
","""event"",""trial"",""time""
""fullscreenexit"",""43"",""278478""
","null","<p></p>","null","","","","","","","","","","","","","","","","","","","","","","",""
"","do_trial","67","404112","0.0-44.0-1.0","""event"",""trial"",""time""
""fullscreenenter"",""0"",""2002""
""fullscreenexit"",""43"",""278478""
","
","
","""event"",""trial"",""time""
""fullscreenenter"",""0"",""2002""
","""event"",""trial"",""time""
""fullscreenexit"",""43"",""278478""
","669.9000000953674","","","","","","","","49","1,0,1","","","","","","","","","","","","","","","",""
"","html-keyboard-response","68","410682","0.0-45.0-0.0","""event"",""trial"",""time""
""fullscreenenter"",""0"",""2002""
""fullscreenexit"",""43"",""278478""
","
","
","""event"",""trial"",""time""
""fullscreenenter"",""0"",""2002""
","""event"",""trial"",""time""
""fullscreenexit"",""43"",""278478""
","6567.5","<div class='center'><p><img src='run_exp/static/images/tutorial/prac_best_pirate.png'  height='500'></p></div>","49","","","","","","","","","","","","","","","","","","","","","","",""
"","html-keyboard-response","69","412337","0.0-46.0-0.0","""event"",""trial"",""time""
""fullscreenenter"",""0"",""2002""
""fullscreenexit"",""43"",""278478""
","
","
","""event"",""trial"",""time""
""fullscreenenter"",""0"",""2002""
","""event"",""trial"",""time""
""fullscreenexit"",""43"",""278478""
","1654.2000000476837","<div class='center'><p>That's correct! Red beard was the best.</p><p><b>[Press the space bar to continue]</b></p></div>","32","","","","","","","","","","","","","","","","","","","","","","",""
"","html-keyboard-response","70","414792","0.0-46.0-1.0","""event"",""trial"",""time""
""fullscreenenter"",""0"",""2002""
""fullscreenexit"",""43"",""278478""
","
","
","""event"",""trial"",""time""
""fullscreenenter"",""0"",""2002""
","""event"",""trial"",""time""
""fullscreenexit"",""43"",""278478""
","2455.2000000476837","<div class='center'><p><img src='run_exp/static/images/tutorial/prac_source.png'  height='500'></p></div>","50","","","","","","","","","","","","","","","","","","","","","","",""
"","html-keyboard-response","71","415944","0.0-47.0-0.0","""event"",""trial"",""time""
""fullscreenenter"",""0"",""2002""
""fullscreenexit"",""43"",""278478""
","
","
","""event"",""trial"",""time""
""fullscreenenter"",""0"",""2002""
","""event"",""trial"",""time""
""fullscreenexit"",""43"",""278478""
","1151.0999999046326","<div class='center'><p>That's correct! You saw this ship on the cavern island.</p><p><b>[Press the space bar to continue]</b></p></div>","32","","","","","","","","","","","","","","","","","","","","","","",""
"","quiz_beginning","72","427376","0.0-47.0-1.0","""event"",""trial"",""time""
""fullscreenenter"",""0"",""2002""
""fullscreenexit"",""43"",""278478""
","
","
","""event"",""trial"",""time""
""fullscreenenter"",""0"",""2002""
","""event"",""trial"",""time""
""fullscreenexit"",""43"",""278478""
","null","run_exp/static/audio/clip_16_quiz_intro.m4a","null","","","","","<div class='center'><p>Good job on the practice game! Now, you will be asked some true or false questions to make sure you really understand the rules of the game.</p><p> Press <b>'1'</b> on the keyboard for true and press <b>'2'</b> for false.</p></div>","","","","","","","","","","","","","","","","","",""
"","audio-keyboard-response","73","432009","0.0-47.0-2.0","""event"",""trial"",""time""
""fullscreenenter"",""0"",""2002""
""fullscreenexit"",""43"",""278478""
","
","
","""event"",""trial"",""time""
""fullscreenenter"",""0"",""2002""
","""event"",""trial"",""time""
""fullscreenexit"",""43"",""278478""
","4631.599999904633","run_exp/static/audio/clip_17_q1.m4a","49","","","","","","","","","","","","","","","","","","","","","","",""
"","correct","74","434416","0.0-48.0-0.0","""event"",""trial"",""time""
""fullscreenenter"",""0"",""2002""
""fullscreenexit"",""43"",""278478""
","
","
","""event"",""trial"",""time""
""fullscreenenter"",""0"",""2002""
","""event"",""trial"",""time""
""fullscreenexit"",""43"",""278478""
","null","run_exp/static/audio/clip_18_correct.m4a","null","","","","","<div class='center'><p>That's correct!</p></div>","","","","","","","","","","","","","","","","","",""
"","html-keyboard-response","75","435313","0.0-48.0-1.0","""event"",""trial"",""time""
""fullscreenenter"",""0"",""2002""
""fullscreenexit"",""43"",""278478""
","
","
","""event"",""trial"",""time""
""fullscreenenter"",""0"",""2002""
","""event"",""trial"",""time""
""fullscreenexit"",""43"",""278478""
","896.0999999046326","<div class='center'><p>That's correct!</p><p><b>[Press the space bar to continue]</b></p></div>","32","","","","","","","","","","","","","","","","","","","","","","",""
"","audio-keyboard-response","76","445825","0.0-48.0-2.0","""event"",""trial"",""time""
""fullscreenenter"",""0"",""2002""
""fullscreenexit"",""43"",""278478""
","
","
","""event"",""trial"",""time""
""fullscreenenter"",""0"",""2002""
","""event"",""trial"",""time""
""fullscreenexit"",""43"",""278478""
","10511.700000047684","run_exp/static/audio/clip_20_q2.m4a","49","","","","","","","","","","","","","","","","","","","","","","",""
"","q2_err","77","451312","0.0-49.0-0.0","""event"",""trial"",""time""
""fullscreenenter"",""0"",""2002""
""fullscreenexit"",""43"",""278478""
","
","
","""event"",""trial"",""time""
""fullscreenenter"",""0"",""2002""
","""event"",""trial"",""time""
""fullscreenexit"",""43"",""278478""
","null","run_exp/static/audio/clip_21_wrong_q2.m4a","null","","","","","<div class='center'><p>That’s incorrect. Which pirate is the best may change during your time on the island.</p></div>","","","","","","","","","","","","","","","","","",""
"","html-keyboard-response","78","452248","0.0-49.0-1.0","""event"",""trial"",""time""
""fullscreenenter"",""0"",""2002""
""fullscreenexit"",""43"",""278478""
","
","
","""event"",""trial"",""time""
""fullscreenenter"",""0"",""2002""
","""event"",""trial"",""time""
""fullscreenexit"",""43"",""278478""
","935.5","<div class='center'><p>That’s incorrect. Which pirate is the best may change during your time on the island.</p><p><b>[Press the space bar to continue]</b></p></div>","32","","","","","","","","","","","","","","","","","","","","","","",""
"","audio-keyboard-response","79","458480","0.0-49.0-2.0","""event"",""trial"",""time""
""fullscreenenter"",""0"",""2002""
""fullscreenexit"",""43"",""278478""
","
","
","""event"",""trial"",""time""
""fullscreenenter"",""0"",""2002""
","""event"",""trial"",""time""
""fullscreenexit"",""43"",""278478""
","6231.699999809265","run_exp/static/audio/clip_22_q3.m4a","50","","","","","","","","","","","","","","","","","","","","","","",""
"","correct","80","460890","0.0-50.0-0.0","""event"",""trial"",""time""
""fullscreenenter"",""0"",""2002""
""fullscreenexit"",""43"",""278478""
","
","
","""event"",""trial"",""time""
""fullscreenenter"",""0"",""2002""
","""event"",""trial"",""time""
""fullscreenexit"",""43"",""278478""
","null","run_exp/static/audio/clip_18_correct.m4a","null","","","","","<div class='center'><p>That's correct!</p></div>","","","","","","","","","","","","","","","","","",""
"","html-keyboard-response","81","461464","0.0-50.0-1.0","""event"",""trial"",""time""
""fullscreenenter"",""0"",""2002""
""fullscreenexit"",""43"",""278478""
","
","
","""event"",""trial"",""time""
""fullscreenenter"",""0"",""2002""
","""event"",""trial"",""time""
""fullscreenexit"",""43"",""278478""
","573.2000000476837","<div class='center'><p>That's correct!</p><p><b>[Press the space bar to continue]</b></p></div>","32","","","","","","","","","","","","","","","","","","","","","","",""
"","audio-keyboard-response","82","466160","0.0-50.0-2.0","""event"",""trial"",""time""
""fullscreenenter"",""0"",""2002""
""fullscreenexit"",""43"",""278478""
","
","
","""event"",""trial"",""time""
""fullscreenenter"",""0"",""2002""
","""event"",""trial"",""time""
""fullscreenexit"",""43"",""278478""
","4694.799999952316","run_exp/static/audio/clip_24_q4.m4a","49","","","","","","","","","","","","","","","","","","","","","","",""
"","correct","83","468570","0.0-51.0-0.0","""event"",""trial"",""time""
""fullscreenenter"",""0"",""2002""
""fullscreenexit"",""43"",""278478""
","
","
","""event"",""trial"",""time""
""fullscreenenter"",""0"",""2002""
","""event"",""trial"",""time""
""fullscreenexit"",""43"",""278478""
","null","run_exp/static/audio/clip_18_correct.m4a","null","","","","","<div class='center'><p>That's correct!</p></div>","","","","","","","","","","","","","","","","","",""
"","html-keyboard-response","84","469288","0.0-51.0-1.0","""event"",""trial"",""time""
""fullscreenenter"",""0"",""2002""
""fullscreenexit"",""43"",""278478""
","
","
","""event"",""trial"",""time""
""fullscreenenter"",""0"",""2002""
","""event"",""trial"",""time""
""fullscreenexit"",""43"",""278478""
","717.4000000953674","<div class='center'><p>That's correct!</p><p><b>[Press the space bar to continue]</b></p></div>","32","","","","","","","","","","","","","","","","","","","","","","",""
"","q_all_err","85","475482","0.0-52.0-0.0","""event"",""trial"",""time""
""fullscreenenter"",""0"",""2002""
""fullscreenexit"",""43"",""278478""
","
","
","""event"",""trial"",""time""
""fullscreenenter"",""0"",""2002""
","""event"",""trial"",""time""
""fullscreenexit"",""43"",""278478""
","null","run_exp/static/audio/clip_26_quiz_redo.m4a","null","","","","","<div class='center'><p>Oops, you missed some questions. Now that you’ve heard the correct answers. Try the quiz again! </p></div>","","","","","","","","","","","","","","","","","",""
"","html-keyboard-response","86","476032","0.0-52.0-1.0","""event"",""trial"",""time""
""fullscreenenter"",""0"",""2002""
""fullscreenexit"",""43"",""278478""
","
","
","""event"",""trial"",""time""
""fullscreenenter"",""0"",""2002""
","""event"",""trial"",""time""
""fullscreenexit"",""43"",""278478""
","548.9000000953674","<div class='center'><p>Oops, you missed some questions. Now that you’ve heard the correct answers. Try the quiz again! </p><p><b>[Press the space bar to continue]</b></p></div>","32","","","","","","","","","","","","","","","","","","","","","","",""
"","audio-keyboard-response","87","478072","0.0-52.0-2.0","""event"",""trial"",""time""
""fullscreenenter"",""0"",""2002""
""fullscreenexit"",""43"",""278478""
","
","
","""event"",""trial"",""time""
""fullscreenenter"",""0"",""2002""
","""event"",""trial"",""time""
""fullscreenexit"",""43"",""278478""
","2039.5","run_exp/static/audio/clip_17_q1.m4a","49","","","","","","","","","","","","","","","","","","","","","","",""
"","correct","88","480474","0.0-53.0-0.0","""event"",""trial"",""time""
""fullscreenenter"",""0"",""2002""
""fullscreenexit"",""43"",""278478""
","
","
","""event"",""trial"",""time""
""fullscreenenter"",""0"",""2002""
","""event"",""trial"",""time""
""fullscreenexit"",""43"",""278478""
","null","run_exp/static/audio/clip_18_correct.m4a","null","","","","","<div class='center'><p>That's correct!</p></div>","","","","","","","","","","","","","","","","","",""
"","html-keyboard-response","89","481233","0.0-53.0-1.0","""event"",""trial"",""time""
""fullscreenenter"",""0"",""2002""
""fullscreenexit"",""43"",""278478""
","
","
","""event"",""trial"",""time""
""fullscreenenter"",""0"",""2002""
","""event"",""trial"",""time""
""fullscreenexit"",""43"",""278478""
","757.9000000953674","<div class='center'><p>That's correct!</p><p><b>[Press the space bar to continue]</b></p></div>","32","","","","","","","","","","","","","","","","","","","","","","",""
"","audio-keyboard-response","90","483392","0.0-53.0-2.0","""event"",""trial"",""time""
""fullscreenenter"",""0"",""2002""
""fullscreenexit"",""43"",""278478""
","
","
","""event"",""trial"",""time""
""fullscreenenter"",""0"",""2002""
","""event"",""trial"",""time""
""fullscreenexit"",""43"",""278478""
","2158.5","run_exp/static/audio/clip_20_q2.m4a","50","","","","","","","","","","","","","","","","","","","","","","",""
"","correct","91","485786","0.0-54.0-0.0","""event"",""trial"",""time""
""fullscreenenter"",""0"",""2002""
""fullscreenexit"",""43"",""278478""
","
","
","""event"",""trial"",""time""
""fullscreenenter"",""0"",""2002""
","""event"",""trial"",""time""
""fullscreenexit"",""43"",""278478""
","null","run_exp/static/audio/clip_18_correct.m4a","null","","","","","<div class='center'><p>That's correct!</p></div>","","","","","","","","","","","","","","","","","",""
"","html-keyboard-response","92","486256","0.0-54.0-1.0","""event"",""trial"",""time""
""fullscreenenter"",""0"",""2002""
""fullscreenexit"",""43"",""278478""
","
","
","""event"",""trial"",""time""
""fullscreenenter"",""0"",""2002""
","""event"",""trial"",""time""
""fullscreenexit"",""43"",""278478""
","468.7000000476837","<div class='center'><p>That's correct!</p><p><b>[Press the space bar to continue]</b></p></div>","32","","","","","","","","","","","","","","","","","","","","","","",""
"","audio-keyboard-response","93","489432","0.0-54.0-2.0","""event"",""trial"",""time""
""fullscreenenter"",""0"",""2002""
""fullscreenexit"",""43"",""278478""
","
","
","""event"",""trial"",""time""
""fullscreenenter"",""0"",""2002""
","""event"",""trial"",""time""
""fullscreenexit"",""43"",""278478""
","3174.800000190735","run_exp/static/audio/clip_22_q3.m4a","50","","","","","","","","","","","","","","","","","","","","","","",""
"","correct","94","491824","0.0-55.0-0.0","""event"",""trial"",""time""
""fullscreenenter"",""0"",""2002""
""fullscreenexit"",""43"",""278478""
","
","
","""event"",""trial"",""time""
""fullscreenenter"",""0"",""2002""
","""event"",""trial"",""time""
""fullscreenexit"",""43"",""278478""
","null","run_exp/static/audio/clip_18_correct.m4a","null","","","","","<div class='center'><p>That's correct!</p></div>","","","","","","","","","","","","","","","","","",""
"","html-keyboard-response","95","492216","0.0-55.0-1.0","""event"",""trial"",""time""
""fullscreenenter"",""0"",""2002""
""fullscreenexit"",""43"",""278478""
","
","
","""event"",""trial"",""time""
""fullscreenenter"",""0"",""2002""
","""event"",""trial"",""time""
""fullscreenexit"",""43"",""278478""
","391.7999999523163","<div class='center'><p>That's correct!</p><p><b>[Press the space bar to continue]</b></p></div>","32","","","","","","","","","","","","","","","","","","","","","","",""
"","audio-keyboard-response","96","496425","0.0-55.0-2.0","""event"",""trial"",""time""
""fullscreenenter"",""0"",""2002""
""fullscreenexit"",""43"",""278478""
","
","
","""event"",""trial"",""time""
""fullscreenenter"",""0"",""2002""
","""event"",""trial"",""time""
""fullscreenexit"",""43"",""278478""
","4207.5","run_exp/static/audio/clip_24_q4.m4a","49","","","","","","","","","","","","","","","","","","","","","","",""
"","correct","97","498863","0.0-56.0-0.0","""event"",""trial"",""time""
""fullscreenenter"",""0"",""2002""
""fullscreenexit"",""43"",""278478""
","
","
","""event"",""trial"",""time""
""fullscreenenter"",""0"",""2002""
","""event"",""trial"",""time""
""fullscreenexit"",""43"",""278478""
","null","run_exp/static/audio/clip_18_correct.m4a","null","","","","","<div class='center'><p>That's correct!</p></div>","","","","","","","","","","","","","","","","","",""
"","html-keyboard-response","98","499352","0.0-56.0-1.0","""event"",""trial"",""time""
""fullscreenenter"",""0"",""2002""
""fullscreenexit"",""43"",""278478""
","
","
","""event"",""trial"",""time""
""fullscreenenter"",""0"",""2002""
","""event"",""trial"",""time""
""fullscreenexit"",""43"",""278478""
","488.09999990463257","<div class='center'><p>That's correct!</p><p><b>[Press the space bar to continue]</b></p></div>","32","","","","","","","","","","","","","","","","","","","","","","",""
"","q_all_corr","99","507844","0.0-57.0-0.0","""event"",""trial"",""time""
""fullscreenenter"",""0"",""2002""
""fullscreenexit"",""43"",""278478""
","
","
","""event"",""trial"",""time""
""fullscreenenter"",""0"",""2002""
","""event"",""trial"",""time""
""fullscreenexit"",""43"",""278478""
","null","run_exp/static/audio/clip_27_quiz_all_correct.m4a","null","","","","","<div class='center'><p>Good job! You’re now ready to move on to the real game! Remember this game will be difficult but don't get discouraged and try your best!</p></div>","","","","","","","","","","","","","","","","","",""
"","html-keyboard-response","100","508960","0.0-57.0-1.0","""event"",""trial"",""time""
""fullscreenenter"",""0"",""2002""
""fullscreenexit"",""43"",""278478""
","
","
","""event"",""trial"",""time""
""fullscreenenter"",""0"",""2002""
","""event"",""trial"",""time""
""fullscreenexit"",""43"",""278478""
","1114.5","<div class='center'><p>Good job! You’re now ready to move on to the real game! Remember this game will be difficult but don't get discouraged and try your best!</p><p><b>[Press the space bar to continue]</b></p></div>","32","","","","","","","","","","","","","","","","","","","","","","",""
"","do_welcome","101","512971","0.0-58.0-0.0","""event"",""trial"",""time""
""fullscreenenter"",""0"",""2002""
""fullscreenexit"",""43"",""278478""
","
","
","""event"",""trial"",""time""
""fullscreenenter"",""0"",""2002""
","""event"",""trial"",""time""
""fullscreenexit"",""43"",""278478""
","null","","","","","","","","null","","","","","","","","","","","","","","","","",""
"","do_trial","102","518616","0.0-59.0-0.0","""event"",""trial"",""time""
""fullscreenenter"",""0"",""2002""
""fullscreenexit"",""43"",""278478""
","
","
","""event"",""trial"",""time""
""fullscreenenter"",""0"",""2002""
","""event"",""trial"",""time""
""fullscreenexit"",""43"",""278478""
","1115.0999999046326","","","","","","","","49","1,0,0","0","mountain","0","probe-210","0.6","0.3","0.1","1","","","","","","","",""
"","html-keyboard-response","103","519628","0.0-59.0-1.0","""event"",""trial"",""time""
""fullscreenenter"",""0"",""2002""
""fullscreenexit"",""43"",""278478""
","
","
","""event"",""trial"",""time""
""fullscreenenter"",""0"",""2002""
","""event"",""trial"",""time""
""fullscreenexit"",""43"",""278478""
","null","<p></p>","null","","","","","","","","","","","","","","","","","","","","","","",""
"","do_trial","104","526001","0.0-60.0-0.0","""event"",""trial"",""time""
""fullscreenenter"",""0"",""2002""
""fullscreenexit"",""43"",""278478""
","
","
","""event"",""trial"",""time""
""fullscreenenter"",""0"",""2002""
","""event"",""trial"",""time""
""fullscreenexit"",""43"",""278478""
","1842.3999998569489","","","","","","","","50","1,0,0","0","mountain","1","probe-192","0.6592585718159315","0.32629432711211304","0.07110582905713717","0","","","","","","","",""
"","html-keyboard-response","105","527013","0.0-60.0-1.0","""event"",""trial"",""time""
""fullscreenenter"",""0"",""2002""
""fullscreenexit"",""43"",""278478""
","
","
","""event"",""trial"",""time""
""fullscreenenter"",""0"",""2002""
","""event"",""trial"",""time""
""fullscreenexit"",""43"",""278478""
","null","<p></p>","null","","","","","","","","","","","","","","","","","","","","","","",""
"","do_trial","106","532413","0.0-61.0-0.0","""event"",""trial"",""time""
""fullscreenenter"",""0"",""2002""
""fullscreenexit"",""43"",""278478""
","
","
","""event"",""trial"",""time""
""fullscreenenter"",""0"",""2002""
","""event"",""trial"",""time""
""fullscreenexit"",""43"",""278478""
","862.7000000476837","","","","","","","","51","0,1,0","0","mountain","2","probe-130","0.5819836530555277","0.3979941079207035","0.08913614293598536","0","","","","","","","",""
"","html-keyboard-response","107","533424","0.0-61.0-1.0","""event"",""trial"",""time""
""fullscreenenter"",""0"",""2002""
""fullscreenexit"",""43"",""278478""
","
","
","""event"",""trial"",""time""
""fullscreenenter"",""0"",""2002""
","""event"",""trial"",""time""
""fullscreenexit"",""43"",""278478""
","null","<p></p>","null","","","","","","","","","","","","","","","","","","","","","","",""
"","do_trial","108","538223","0.0-62.0-0.0","""event"",""trial"",""time""
""fullscreenenter"",""0"",""2002""
""fullscreenexit"",""43"",""278478""
","
","
","""event"",""trial"",""time""
""fullscreenenter"",""0"",""2002""
","""event"",""trial"",""time""
""fullscreenexit"",""43"",""278478""
","268.80000019073486","","","","","","","","49","0,1,1","0","mountain","3","probe-03","0.6109886725400065","0.16942136676586333","0.12057373992484995","0","","","","","","","",""
"","html-keyboard-response","109","539224","0.0-62.0-1.0","""event"",""trial"",""time""
""fullscreenenter"",""0"",""2002""
""fullscreenexit"",""43"",""278478""
","
","
","""event"",""trial"",""time""
""fullscreenenter"",""0"",""2002""
","""event"",""trial"",""time""
""fullscreenexit"",""43"",""278478""
","null","<p></p>","null","","","","","","","","","","","","","","","","","","","","","","",""
"","do_trial","110","544391","0.0-63.0-0.0","""event"",""trial"",""time""
""fullscreenenter"",""0"",""2002""
""fullscreenexit"",""43"",""278478""
","
","
","""event"",""trial"",""time""
""fullscreenenter"",""0"",""2002""
","""event"",""trial"",""time""
""fullscreenexit"",""43"",""278478""
","630.2999999523163","","","","","","","","49","1,0,0","0","mountain","4","probe-160","0.5749360426804452","0.29135440683308333","0.16842827690377246","1","","","","","","","",""
"","html-keyboard-response","111","545397","0.0-63.0-1.0","""event"",""trial"",""time""
""fullscreenenter"",""0"",""2002""
""fullscreenexit"",""43"",""278478""
","
","
","""event"",""trial"",""time""
""fullscreenenter"",""0"",""2002""
","""event"",""trial"",""time""
""fullscreenexit"",""43"",""278478""
","null","<p></p>","null","","","","","","","","","","","","","","","","","","","","","","",""
"","do_trial","112","550265","0.0-64.0-0.0","""event"",""trial"",""time""
""fullscreenenter"",""0"",""2002""
""fullscreenexit"",""43"",""278478""
","
","
","""event"",""trial"",""time""
""fullscreenenter"",""0"",""2002""
","""event"",""trial"",""time""
""fullscreenexit"",""43"",""278478""
","327.80000019073486","","","","","","","","50","0,1,0","0","mountain","5","probe-188","0.4944947153834097","0.3796015467880395","0.05407893460623351","1","","","","","","","",""
"","html-keyboard-response","113","551267","0.0-64.0-1.0","""event"",""trial"",""time""
""fullscreenenter"",""0"",""2002""
""fullscreenexit"",""43"",""278478""
","
","
","""event"",""trial"",""time""
""fullscreenenter"",""0"",""2002""
","""event"",""trial"",""time""
""fullscreenexit"",""43"",""278478""
","null","<p></p>","null","","","","","","","","","","","","","","","","","","","","","","",""
"","do_trial","114","556701","0.0-65.0-0.0","""event"",""trial"",""time""
""fullscreenenter"",""0"",""2002""
""fullscreenexit"",""43"",""278478""
","
","
","""event"",""trial"",""time""
""fullscreenenter"",""0"",""2002""
","""event"",""trial"",""time""
""fullscreenexit"",""43"",""278478""
","889.2999999523163","","","","","","","","51","1,1,1","0","mountain","6","probe-155","0.6046770131209502","0.4352354583129689","0.07597046955681518","1","","","","","","","",""
"","html-keyboard-response","115","557705","0.0-65.0-1.0","""event"",""trial"",""time""
""fullscreenenter"",""0"",""2002""
""fullscreenexit"",""43"",""278478""
","
","
","""event"",""trial"",""time""
""fullscreenenter"",""0"",""2002""
","""event"",""trial"",""time""
""fullscreenexit"",""43"",""278478""
","null","<p></p>","null","","","","","","","","","","","","","","","","","","","","","","",""
"","do_trial","116","562516","0.0-66.0-0.0","""event"",""trial"",""time""
""fullscreenenter"",""0"",""2002""
""fullscreenexit"",""43"",""278478""
","
","
","""event"",""trial"",""time""
""fullscreenenter"",""0"",""2002""
","""event"",""trial"",""time""
""fullscreenexit"",""43"",""278478""
","276.09999990463257","","","","","","","","50","1,0,0","0","mountain","7","probe-227","0.6856310779124861","0.48727848419199443","0.0641781531127746","0","","","","","","","",""
"","html-keyboard-response","117","563518","0.0-66.0-1.0","""event"",""trial"",""time""
""fullscreenenter"",""0"",""2002""
""fullscreenexit"",""43"",""278478""
","
","
","""event"",""trial"",""time""
""fullscreenenter"",""0"",""2002""
","""event"",""trial"",""time""
""fullscreenexit"",""43"",""278478""
","null","<p></p>","null","","","","","","","","","","","","","","","","","","","","","","",""
"","do_trial","118","568438","0.0-67.0-0.0","""event"",""trial"",""time""
""fullscreenenter"",""0"",""2002""
""fullscreenexit"",""43"",""278478""
","
","
","""event"",""trial"",""time""
""fullscreenenter"",""0"",""2002""
","""event"",""trial"",""time""
""fullscreenexit"",""43"",""278478""
","382.7999999523163","","","","","","","","51","1,1,0","0","mountain","8","probe-152","0.6009861086718605","0.5007543621681205","0.09709465914405051","0","","","","","","","",""
"","html-keyboard-response","119","569447","0.0-67.0-1.0","""event"",""trial"",""time""
""fullscreenenter"",""0"",""2002""
""fullscreenexit"",""43"",""278478""
","
","
","""event"",""trial"",""time""
""fullscreenenter"",""0"",""2002""
","""event"",""trial"",""time""
""fullscreenexit"",""43"",""278478""
","null","<p></p>","null","","","","","","","","","","","","","","","","","","","","","","",""
"","do_trial","120","574584","0.0-68.0-0.0","""event"",""trial"",""time""
""fullscreenenter"",""0"",""2002""
""fullscreenexit"",""43"",""278478""
","
","
","""event"",""trial"",""time""
""fullscreenenter"",""0"",""2002""
","""event"",""trial"",""time""
""fullscreenexit"",""43"",""278478""
","609","","","","","","","","49","1,1,0","0","mountain","9","probe-69","0.4754463724868617","0.3881729653839363","0.07014055197465033","1","","","","","","","",""
"","html-keyboard-response","121","575586","0.0-68.0-1.0","""event"",""trial"",""time""
""fullscreenenter"",""0"",""2002""
""fullscreenexit"",""43"",""278478""
","
","
","""event"",""trial"",""time""
""fullscreenenter"",""0"",""2002""
","""event"",""trial"",""time""
""fullscreenexit"",""43"",""278478""
","null","<p></p>","null","","","","","","","","","","","","","","","","","","","","","","",""
"","do_trial","122","580547","0.0-69.0-0.0","""event"",""trial"",""time""
""fullscreenenter"",""0"",""2002""
""fullscreenexit"",""43"",""278478""
","
","
","""event"",""trial"",""time""
""fullscreenenter"",""0"",""2002""
","""event"",""trial"",""time""
""fullscreenexit"",""43"",""278478""
","419.09999990463257","","","","","","","","50","0,1,0","0","mountain","10","probe-27","0.5632831836745252","0.46710302675338916","0.12113733650733884","1","","","","","","","",""
"","html-keyboard-response","123","581550","0.0-69.0-1.0","""event"",""trial"",""time""
""fullscreenenter"",""0"",""2002""
""fullscreenexit"",""43"",""278478""
","
","
","""event"",""trial"",""time""
""fullscreenenter"",""0"",""2002""
","""event"",""trial"",""time""
""fullscreenexit"",""43"",""278478""
","null","<p></p>","null","","","","","","","","","","","","","","","","","","","","","","",""
"","do_trial","124","586717","0.0-70.0-0.0","""event"",""trial"",""time""
""fullscreenenter"",""0"",""2002""
""fullscreenexit"",""43"",""278478""
","
","
","""event"",""trial"",""time""
""fullscreenenter"",""0"",""2002""
","""event"",""trial"",""time""
""fullscreenexit"",""43"",""278478""
","639.3999998569489","","","","","","","","51","0,0,0","0","mountain","11","probe-33","0.621738759139149","0.45977590835394994","0.2015940075367488","0","","","","","","","",""
"","html-keyboard-response","125","587719","0.0-70.0-1.0","""event"",""trial"",""time""
""fullscreenenter"",""0"",""2002""
""fullscreenexit"",""43"",""278478""
","
","
","""event"",""trial"",""time""
""fullscreenenter"",""0"",""2002""
","""event"",""trial"",""time""
""fullscreenexit"",""43"",""278478""
","null","<p></p>","null","","","","","","","","","","","","","","","","","","","","","","",""
"","do_trial","126","593238","0.0-71.0-0.0","""event"",""trial"",""time""
""fullscreenenter"",""0"",""2002""
""fullscreenexit"",""43"",""278478""
","
","
","""event"",""trial"",""time""
""fullscreenenter"",""0"",""2002""
","""event"",""trial"",""time""
""fullscreenexit"",""43"",""278478""
","990.8999998569489","","","","","","","","50","1,1,0","0","mountain","12","probe-74","0.6538204518585355","0.24386015213801845","0.18402767453545862","1","","","","","","","",""
"","html-keyboard-response","127","594252","0.0-71.0-1.0","""event"",""trial"",""time""
""fullscreenenter"",""0"",""2002""
""fullscreenexit"",""43"",""278478""
","
","
","""event"",""trial"",""time""
""fullscreenenter"",""0"",""2002""
","""event"",""trial"",""time""
""fullscreenexit"",""43"",""278478""
","null","<p></p>","null","","","","","","","","","","","","","","","","","","","","","","",""
"","do_trial","128","599190","0.0-72.0-0.0","""event"",""trial"",""time""
""fullscreenenter"",""0"",""2002""
""fullscreenexit"",""43"",""278478""
","
","
","""event"",""trial"",""time""
""fullscreenenter"",""0"",""2002""
","""event"",""trial"",""time""
""fullscreenexit"",""43"",""278478""
","400.80000019073486","","","","","","","","49","1,0,0","0","mountain","13","probe-219","0.6085539381040813","0.25667454559905617","0.2529026658320011","1","","","","","","","",""
"","html-keyboard-response","129","600199","0.0-72.0-1.0","""event"",""trial"",""time""
""fullscreenenter"",""0"",""2002""
""fullscreenexit"",""43"",""278478""
","
","
","""event"",""trial"",""time""
""fullscreenenter"",""0"",""2002""
","""event"",""trial"",""time""
""fullscreenexit"",""43"",""278478""
","null","<p></p>","null","","","","","","","","","","","","","","","","","","","","","","",""
"","do_trial","130","605254","0.0-73.0-0.0","""event"",""trial"",""time""
""fullscreenenter"",""0"",""2002""
""fullscreenexit"",""43"",""278478""
","
","
","""event"",""trial"",""time""
""fullscreenenter"",""0"",""2002""
","""event"",""trial"",""time""
""fullscreenexit"",""43"",""278478""
","526.4000000953674","","","","","","","","49","1,1,0","0","mountain","14","probe-170","0.5711502495084804","0.33882327438005405","0.29320572564904196","1","","","","","","","",""
"","html-keyboard-response","131","606267","0.0-73.0-1.0","""event"",""trial"",""time""
""fullscreenenter"",""0"",""2002""
""fullscreenexit"",""43"",""278478""
","
","
","""event"",""trial"",""time""
""fullscreenenter"",""0"",""2002""
","""event"",""trial"",""time""
""fullscreenexit"",""43"",""278478""
","null","<p></p>","null","","","","","","","","","","","","","","","","","","","","","","",""
"","do_trial","132","611294","0.0-74.0-0.0","""event"",""trial"",""time""
""fullscreenenter"",""0"",""2002""
""fullscreenexit"",""43"",""278478""
","
","
","""event"",""trial"",""time""
""fullscreenenter"",""0"",""2002""
","""event"",""trial"",""time""
""fullscreenexit"",""43"",""278478""
","497.7000000476837","","","","","","","","49","1,0,0","0","mountain","15","probe-145","0.5396148700481171","0.34756702932198896","0.33493950568393405","1","","","","","","","",""
"","html-keyboard-response","133","612303","0.0-74.0-1.0","""event"",""trial"",""time""
""fullscreenenter"",""0"",""2002""
""fullscreenexit"",""43"",""278478""
","
","
","""event"",""trial"",""time""
""fullscreenenter"",""0"",""2002""
","""event"",""trial"",""time""
""fullscreenexit"",""43"",""278478""
","null","<p></p>","null","","","","","","","","","","","","","","","","","","","","","","",""
"","do_trial","134","617501","0.0-75.0-0.0","""event"",""trial"",""time""
""fullscreenenter"",""0"",""2002""
""fullscreenexit"",""43"",""278478""
","
","
","""event"",""trial"",""time""
""fullscreenenter"",""0"",""2002""
","""event"",""trial"",""time""
""fullscreenexit"",""43"",""278478""
","672.8999998569489","","","","","","","","50","1,0,0","0","mountain","16","probe-201","0.5133401800606151","0.3294363178213138","0.2076538015781878","0","","","","","","","",""
"","html-keyboard-response","135","618515","0.0-75.0-1.0","""event"",""trial"",""time""
""fullscreenenter"",""0"",""2002""
""fullscreenexit"",""43"",""278478""
","
","
","""event"",""trial"",""time""
""fullscreenenter"",""0"",""2002""
","""event"",""trial"",""time""
""fullscreenexit"",""43"",""278478""
","null","<p></p>","null","","","","","","","","","","","","","","","","","","","","","","",""
"","do_trial","136","623561","0.0-76.0-0.0","""event"",""trial"",""time""
""fullscreenenter"",""0"",""2002""
""fullscreenexit"",""43"",""278478""
","
","
","""event"",""trial"",""time""
""fullscreenenter"",""0"",""2002""
","""event"",""trial"",""time""
""fullscreenexit"",""43"",""278478""
","513.9000000953674","","","","","","","","51","0,0,1","0","mountain","17","probe-56","0.6031847920883108","0.45735234578170314","0.12364336037607845","1","","","","","","","",""
"","html-keyboard-response","137","624571","0.0-76.0-1.0","""event"",""trial"",""time""
""fullscreenenter"",""0"",""2002""
""fullscreenexit"",""43"",""278478""
","
","
","""event"",""trial"",""time""
""fullscreenenter"",""0"",""2002""
","""event"",""trial"",""time""
""fullscreenexit"",""43"",""278478""
","null","<p></p>","null","","","","","","","","","","","","","","","","","","","","","","",""
"","do_trial","138","629685","0.0-77.0-0.0","""event"",""trial"",""time""
""fullscreenenter"",""0"",""2002""
""fullscreenexit"",""43"",""278478""
","
","
","""event"",""trial"",""time""
""fullscreenenter"",""0"",""2002""
","""event"",""trial"",""time""
""fullscreenexit"",""43"",""278478""
","587.9000000953674","","","","","","","","51","1,0,0","0","mountain","18","probe-35","0.6709238050787417","0.31654260650103533","0.2271939319577115","0","","","","","","","",""
"","html-keyboard-response","139","630695","0.0-77.0-1.0","""event"",""trial"",""time""
""fullscreenenter"",""0"",""2002""
""fullscreenexit"",""43"",""278478""
","
","
","""event"",""trial"",""time""
""fullscreenenter"",""0"",""2002""
","""event"",""trial"",""time""
""fullscreenexit"",""43"",""278478""
","null","<p></p>","null","","","","","","","","","","","","","","","","","","","","","","",""
"","do_trial","140","635544","0.0-78.0-0.0","""event"",""trial"",""time""
""fullscreenenter"",""0"",""2002""
""fullscreenexit"",""43"",""278478""
","
","
","""event"",""trial"",""time""
""fullscreenenter"",""0"",""2002""
","""event"",""trial"",""time""
""fullscreenexit"",""43"",""278478""
","318","","","","","","","","50","1,0,0","0","mountain","19","probe-165","0.5874597947397187","0.1918562896498563","0.2266277440492034","0","","","","","","","",""
"","html-keyboard-response","141","636555","0.0-78.0-1.0","""event"",""trial"",""time""
""fullscreenenter"",""0"",""2002""
""fullscreenexit"",""43"",""278478""
","
","
","""event"",""trial"",""time""
""fullscreenenter"",""0"",""2002""
","""event"",""trial"",""time""
""fullscreenexit"",""43"",""278478""
","null","<p></p>","null","","","","","","","","","","","","","","","","","","","","","","",""
"","do_trial","142","641501","0.0-79.0-0.0","""event"",""trial"",""time""
""fullscreenenter"",""0"",""2002""
""fullscreenexit"",""43"",""278478""
","
","
","""event"",""trial"",""time""
""fullscreenenter"",""0"",""2002""
","""event"",""trial"",""time""
""fullscreenexit"",""43"",""278478""
","401.09999990463257","","","","","","","","49","1,0,1","0","mountain","20","probe-64","0.5684928158364053","0.25950794458781085","0.21954169061960277","1","","","","","","","",""
"","html-keyboard-response","143","642514","0.0-79.0-1.0","""event"",""trial"",""time""
""fullscreenenter"",""0"",""2002""
""fullscreenexit"",""43"",""278478""
","
","
","""event"",""trial"",""time""
""fullscreenenter"",""0"",""2002""
","""event"",""trial"",""time""
""fullscreenexit"",""43"",""278478""
","null","<p></p>","null","","","","","","","","","","","","","","","","","","","","","","",""
"","do_trial","144","647489","0.0-80.0-0.0","""event"",""trial"",""time""
""fullscreenenter"",""0"",""2002""
""fullscreenexit"",""43"",""278478""
","
","
","""event"",""trial"",""time""
""fullscreenenter"",""0"",""2002""
","""event"",""trial"",""time""
""fullscreenexit"",""43"",""278478""
","434.60000014305115","","","","","","","","49","1,0,0","0","mountain","21","probe-32","0.6417131370849688","0.24899347948244","0.08032438116335605","1","","","","","","","",""
"","html-keyboard-response","145","648498","0.0-80.0-1.0","""event"",""trial"",""time""
""fullscreenenter"",""0"",""2002""
""fullscreenexit"",""43"",""278478""
","
","
","""event"",""trial"",""time""
""fullscreenenter"",""0"",""2002""
","""event"",""trial"",""time""
""fullscreenexit"",""43"",""278478""
","null","<p></p>","null","","","","","","","","","","","","","","","","","","","","","","",""
"","do_trial","146","653312","0.0-81.0-0.0","""event"",""trial"",""time""
""fullscreenenter"",""0"",""2002""
""fullscreenexit"",""43"",""278478""
","
","
","""event"",""trial"",""time""
""fullscreenenter"",""0"",""2002""
","""event"",""trial"",""time""
""fullscreenexit"",""43"",""278478""
","272.90000009536743","","","","","","","","51","1,0,0","0","mountain","22","probe-197","0.5628985049978349","0.33342329031782364","0.09117780787746847","0","","","","","","","",""
"","html-keyboard-response","147","654319","0.0-81.0-1.0","""event"",""trial"",""time""
""fullscreenenter"",""0"",""2002""
""fullscreenexit"",""43"",""278478""
","
","
","""event"",""trial"",""time""
""fullscreenenter"",""0"",""2002""
","""event"",""trial"",""time""
""fullscreenexit"",""43"",""278478""
","null","<p></p>","null","","","","","","","","","","","","","","","","","","","","","","",""
"","do_trial","148","659137","0.0-82.0-0.0","""event"",""trial"",""time""
""fullscreenenter"",""0"",""2002""
""fullscreenexit"",""43"",""278478""
","
","
","""event"",""trial"",""time""
""fullscreenenter"",""0"",""2002""
","""event"",""trial"",""time""
""fullscreenexit"",""43"",""278478""
","285.60000014305115","","","","","","","","50","1,0,0","0","mountain","23","probe-200","0.5558156478862131","0.21260147155686","0.06440228831578552","0","","","","","","","",""
"","html-keyboard-response","149","660150","0.0-82.0-1.0","""event"",""trial"",""time""
""fullscreenenter"",""0"",""2002""
""fullscreenexit"",""43"",""278478""
","
","
","""event"",""trial"",""time""
""fullscreenenter"",""0"",""2002""
","""event"",""trial"",""time""
""fullscreenexit"",""43"",""278478""
","null","<p></p>","null","","","","","","","","","","","","","","","","","","","","","","",""
"","do_trial","150","664993","0.0-83.0-0.0","""event"",""trial"",""time""
""fullscreenenter"",""0"",""2002""
""fullscreenexit"",""43"",""278478""
","
","
","""event"",""trial"",""time""
""fullscreenenter"",""0"",""2002""
","""event"",""trial"",""time""
""fullscreenexit"",""43"",""278478""
","304.2999999523163","","","","","","","","49","1,0,0","0","mountain","24","probe-125","0.5188770554280733","0.14372612972942203","0.10988433242015454","1","","","","","","","",""
"","html-keyboard-response","151","666004","0.0-83.0-1.0","""event"",""trial"",""time""
""fullscreenenter"",""0"",""2002""
""fullscreenexit"",""43"",""278478""
","
","
","""event"",""trial"",""time""
""fullscreenenter"",""0"",""2002""
","""event"",""trial"",""time""
""fullscreenexit"",""43"",""278478""
","null","<p></p>","null","","","","","","","","","","","","","","","","","","","","","","",""
"","do_trial","152","670884","0.0-84.0-0.0","""event"",""trial"",""time""
""fullscreenenter"",""0"",""2002""
""fullscreenexit"",""43"",""278478""
","
","
","""event"",""trial"",""time""
""fullscreenenter"",""0"",""2002""
","""event"",""trial"",""time""
""fullscreenexit"",""43"",""278478""
","340.09999990463257","","","","","","","","49","0,1,0","0","mountain","25","probe-126","0.39486669712590017","0.2144917462042217","0.23307863966783948","0","","","","","","","",""
"","html-keyboard-response","153","671892","0.0-84.0-1.0","""event"",""trial"",""time""
""fullscreenenter"",""0"",""2002""
""fullscreenexit"",""43"",""278478""
","
","
","""event"",""trial"",""time""
""fullscreenenter"",""0"",""2002""
","""event"",""trial"",""time""
""fullscreenexit"",""43"",""278478""
","null","<p></p>","null","","","","","","","","","","","","","","","","","","","","","","",""
"","do_trial","154","677138","0.0-85.0-0.0","""event"",""trial"",""time""
""fullscreenenter"",""0"",""2002""
""fullscreenexit"",""43"",""278478""
","
","
","""event"",""trial"",""time""
""fullscreenenter"",""0"",""2002""
","""event"",""trial"",""time""
""fullscreenexit"",""43"",""278478""
","703.5999999046326","","","","","","","","50","0,0,0","0","mountain","26","probe-06","0.5501753610118886","0.31641466027528964","0.18914003561886208","0","","","","","","","",""
"","html-keyboard-response","155","678146","0.0-85.0-1.0","""event"",""trial"",""time""
""fullscreenenter"",""0"",""2002""
""fullscreenexit"",""43"",""278478""
","
","
","""event"",""trial"",""time""
""fullscreenenter"",""0"",""2002""
","""event"",""trial"",""time""
""fullscreenexit"",""43"",""278478""
","null","<p></p>","null","","","","","","","","","","","","","","","","","","","","","","",""
"","do_trial","156","683118","0.0-86.0-0.0","""event"",""trial"",""time""
""fullscreenenter"",""0"",""2002""
""fullscreenexit"",""43"",""278478""
","
","
","""event"",""trial"",""time""
""fullscreenenter"",""0"",""2002""
","""event"",""trial"",""time""
""fullscreenexit"",""43"",""278478""
","444.5","","","","","","","","51","0,0,0","0","mountain","27","probe-40","0.5383978508724848","0.3954209108009225","0.20455442564947401","0","","","","","","","",""
"","html-keyboard-response","157","684127","0.0-86.0-1.0","""event"",""trial"",""time""
""fullscreenenter"",""0"",""2002""
""fullscreenexit"",""43"",""278478""
","
","
","""event"",""trial"",""time""
""fullscreenenter"",""0"",""2002""
","""event"",""trial"",""time""
""fullscreenexit"",""43"",""278478""
","null","<p></p>","null","","","","","","","","","","","","","","","","","","","","","","",""
"","do_trial","158","689119","0.0-87.0-0.0","""event"",""trial"",""time""
""fullscreenenter"",""0"",""2002""
""fullscreenexit"",""43"",""278478""
","
","
","""event"",""trial"",""time""
""fullscreenenter"",""0"",""2002""
","""event"",""trial"",""time""
""fullscreenexit"",""43"",""278478""
","462.59999990463257","","","","","","","","50","1,1,0","0","mountain","28","probe-39","0.5797635425193922","0.34160318262495276","0.23795922797523858","1","","","","","","","",""
"","html-keyboard-response","159","690126","0.0-87.0-1.0","""event"",""trial"",""time""
""fullscreenenter"",""0"",""2002""
""fullscreenexit"",""43"",""278478""
","
","
","""event"",""trial"",""time""
""fullscreenenter"",""0"",""2002""
","""event"",""trial"",""time""
""fullscreenexit"",""43"",""278478""
","null","<p></p>","null","","","","","","","","","","","","","","","","","","","","","","",""
"","do_trial","160","695644","0.0-88.0-0.0","""event"",""trial"",""time""
""fullscreenenter"",""0"",""2002""
""fullscreenexit"",""43"",""278478""
","
","
","""event"",""trial"",""time""
""fullscreenenter"",""0"",""2002""
","""event"",""trial"",""time""
""fullscreenexit"",""43"",""278478""
","974.5","","","","","","","","51","0,1,0","0","mountain","29","probe-106","0.5641417231708913","0.32481002774999673","0.09597238642523012","0","","","","","","","",""
"","html-keyboard-response","161","696660","0.0-88.0-1.0","""event"",""trial"",""time""
""fullscreenenter"",""0"",""2002""
""fullscreenexit"",""43"",""278478""
","
","
","""event"",""trial"",""time""
""fullscreenenter"",""0"",""2002""
","""event"",""trial"",""time""
""fullscreenexit"",""43"",""278478""
","null","<p></p>","null","","","","","","","","","","","","","","","","","","","","","","",""
"","do_bye","162","698171","0.0-89.0-0.0","""event"",""trial"",""time""
""fullscreenenter"",""0"",""2002""
""fullscreenexit"",""43"",""278478""
","
","
","""event"",""trial"",""time""
""fullscreenenter"",""0"",""2002""
","""event"",""trial"",""time""
""fullscreenexit"",""43"",""278478""
","null","","","","","","","","null","","","","","","","","","","","","","","","","",""
"","break","163","702088","0.0-89.0-1.0","""event"",""trial"",""time""
""fullscreenenter"",""0"",""2002""
""fullscreenexit"",""43"",""278478""
","
","
","""event"",""trial"",""time""
""fullscreenenter"",""0"",""2002""
","""event"",""trial"",""time""
""fullscreenexit"",""43"",""278478""
","3916.100000143051","<div class='center'><p>Time to take a quick break! You have 2 minutes to rest, but you can move on sooner if you'd like.</p><p> Press the <b>space bar</b> to continue.</p></div>","32","","","","","","","","","","","","","","","","","","","","","","",""
"","do_travel","164","711092","0.0-90.0-0.0","""event"",""trial"",""time""
""fullscreenenter"",""0"",""2002""
""fullscreenexit"",""43"",""278478""
","
","
","""event"",""trial"",""time""
""fullscreenenter"",""0"",""2002""
","""event"",""trial"",""time""
""fullscreenexit"",""43"",""278478""
","null","","","","","","","","null","","","","","","","","","","","","","","","","",""
"","do_welcome","165","715105","0.0-90.0-1.0","""event"",""trial"",""time""
""fullscreenenter"",""0"",""2002""
""fullscreenexit"",""43"",""278478""
","
","
","""event"",""trial"",""time""
""fullscreenenter"",""0"",""2002""
","""event"",""trial"",""time""
""fullscreenexit"",""43"",""278478""
","null","","","","","","","","null","","","","","","","","","","","","","","","","",""
"","do_trial","166","720203","0.0-91.0-0.0","""event"",""trial"",""time""
""fullscreenenter"",""0"",""2002""
""fullscreenexit"",""43"",""278478""
","
","
","""event"",""trial"",""time""
""fullscreenenter"",""0"",""2002""
","""event"",""trial"",""time""
""fullscreenexit"",""43"",""278478""
","555.2000000476837","","","","","","","","49","1,0,0","1","countryside","30","probe-109","1","0.3037295953116887","0.1577745451169602","1","","","","","","","",""
"","html-keyboard-response","167","721217","0.0-91.0-1.0","""event"",""trial"",""time""
""fullscreenenter"",""0"",""2002""
""fullscreenexit"",""43"",""278478""
","
","
","""event"",""trial"",""time""
""fullscreenenter"",""0"",""2002""
","""event"",""trial"",""time""
""fullscreenexit"",""43"",""278478""
","null","<p></p>","null","","","","","","","","","","","","","","","","","","","","","","",""
"","do_trial","168","726029","0.0-92.0-0.0","""event"",""trial"",""time""
""fullscreenenter"",""0"",""2002""
""fullscreenexit"",""43"",""278478""
","
","
","""event"",""trial"",""time""
""fullscreenenter"",""0"",""2002""
","""event"",""trial"",""time""
""fullscreenexit"",""43"",""278478""
","278.39999985694885","","","","","","","","49","1,0,0","1","countryside","31","probe-99","1","0.26951616036646786","0.21371811121612985","1","","","","","","","",""
"","html-keyboard-response","169","727042","0.0-92.0-1.0","""event"",""trial"",""time""
""fullscreenenter"",""0"",""2002""
""fullscreenexit"",""43"",""278478""
","
","
","""event"",""trial"",""time""
""fullscreenenter"",""0"",""2002""
","""event"",""trial"",""time""
""fullscreenexit"",""43"",""278478""
","null","<p></p>","null","","","","","","","","","","","","","","","","","","","","","","",""
"","do_trial","170","731896","0.0-93.0-0.0","""event"",""trial"",""time""
""fullscreenenter"",""0"",""2002""
""fullscreenexit"",""43"",""278478""
","
","
","""event"",""trial"",""time""
""fullscreenenter"",""0"",""2002""
","""event"",""trial"",""time""
""fullscreenexit"",""43"",""278478""
","315.09999990463257","","","","","","","","50","1,1,0","1","countryside","32","probe-202","1","0.34601239859684363","0.1455425746045115","1","","","","","","","",""
"","html-keyboard-response","171","732911","0.0-93.0-1.0","""event"",""trial"",""time""
""fullscreenenter"",""0"",""2002""
""fullscreenexit"",""43"",""278478""
","
","
","""event"",""trial"",""time""
""fullscreenenter"",""0"",""2002""
","""event"",""trial"",""time""
""fullscreenexit"",""43"",""278478""
","null","<p></p>","null","","","","","","","","","","","","","","","","","","","","","","",""
"","do_trial","172","737829","0.0-94.0-0.0","""event"",""trial"",""time""
""fullscreenenter"",""0"",""2002""
""fullscreenexit"",""43"",""278478""
","
","
","""event"",""trial"",""time""
""fullscreenenter"",""0"",""2002""
","""event"",""trial"",""time""
""fullscreenexit"",""43"",""278478""
","382.89999985694885","","","","","","","","50","0,1,0","1","countryside","33","probe-25","0.9275979632913783","0.4706324770486384","0.06652323619759386","1","","","","","","","",""
"","html-keyboard-response","173","738840","0.0-94.0-1.0","""event"",""trial"",""time""
""fullscreenenter"",""0"",""2002""
""fullscreenexit"",""43"",""278478""
","
","
","""event"",""trial"",""time""
""fullscreenenter"",""0"",""2002""
","""event"",""trial"",""time""
""fullscreenexit"",""43"",""278478""
","null","<p></p>","null","","","","","","","","","","","","","","","","","","","","","","",""
"","do_trial","174","743929","0.0-95.0-0.0","""event"",""trial"",""time""
""fullscreenenter"",""0"",""2002""
""fullscreenexit"",""43"",""278478""
","
","
","""event"",""trial"",""time""
""fullscreenenter"",""0"",""2002""
","""event"",""trial"",""time""
""fullscreenexit"",""43"",""278478""
","556.2000000476837","","","","","","","","51","1,1,0","1","countryside","34","probe-70","0.7207824193595235","0.3662769135499885","0.06268902676191858","0","","","","","","","",""
"","html-keyboard-response","175","744936","0.0-95.0-1.0","""event"",""trial"",""time""
""fullscreenenter"",""0"",""2002""
""fullscreenexit"",""43"",""278478""
","
","
","""event"",""trial"",""time""
""fullscreenenter"",""0"",""2002""
","""event"",""trial"",""time""
""fullscreenexit"",""43"",""278478""
","null","<p></p>","null","","","","","","","","","","","","","","","","","","","","","","",""
"","do_trial","176","750203","0.0-96.0-0.0","""event"",""trial"",""time""
""fullscreenenter"",""0"",""2002""
""fullscreenexit"",""43"",""278478""
","
","
","""event"",""trial"",""time""
""fullscreenenter"",""0"",""2002""
","""event"",""trial"",""time""
""fullscreenexit"",""43"",""278478""
","731.6000001430511","","","","","","","","51","0,1,0","1","countryside","35","probe-87","0.5385139443059578","0.33380268825293785","0.1399217663159045","0","","","","","","","",""
"","html-keyboard-response","177","751208","0.0-96.0-1.0","""event"",""trial"",""time""
""fullscreenenter"",""0"",""2002""
""fullscreenexit"",""43"",""278478""
","
","
","""event"",""trial"",""time""
""fullscreenenter"",""0"",""2002""
","""event"",""trial"",""time""
""fullscreenexit"",""43"",""278478""
","null","<p></p>","null","","","","","","","","","","","","","","","","","","","","","","",""
"","do_trial","178","756018","0.0-97.0-0.0","""event"",""trial"",""time""
""fullscreenenter"",""0"",""2002""
""fullscreenexit"",""43"",""278478""
","
","
","""event"",""trial"",""time""
""fullscreenenter"",""0"",""2002""
","""event"",""trial"",""time""
""fullscreenexit"",""43"",""278478""
","276.80000019073486","","","","","","","","50","1,1,1","1","countryside","36","probe-100","0.5501578244616443","0.29789148074337396","0.11379977224316826","1","","","","","","","",""
"","html-keyboard-response","179","757024","0.0-97.0-1.0","""event"",""trial"",""time""
""fullscreenenter"",""0"",""2002""
""fullscreenexit"",""43"",""278478""
","
","
","""event"",""trial"",""time""
""fullscreenenter"",""0"",""2002""
","""event"",""trial"",""time""
""fullscreenexit"",""43"",""278478""
","null","<p></p>","null","","","","","","","","","","","","","","","","","","","","","","",""
"","do_trial","180","761830","0.0-98.0-0.0","""event"",""trial"",""time""
""fullscreenenter"",""0"",""2002""
""fullscreenexit"",""43"",""278478""
","
","
","""event"",""trial"",""time""
""fullscreenenter"",""0"",""2002""
","""event"",""trial"",""time""
""fullscreenexit"",""43"",""278478""
","269","","","","","","","","50","1,0,0","1","countryside","37","probe-61","0.5122975796786169","0.3647881592484962","0.12395669693668661","0","","","","","","","",""
"","html-keyboard-response","181","762841","0.0-98.0-1.0","""event"",""trial"",""time""
""fullscreenenter"",""0"",""2002""
""fullscreenexit"",""43"",""278478""
","
","
","""event"",""trial"",""time""
""fullscreenenter"",""0"",""2002""
","""event"",""trial"",""time""
""fullscreenexit"",""43"",""278478""
","null","<p></p>","null","","","","","","","","","","","","","","","","","","","","","","",""
"","do_trial","182","767790","0.0-99.0-0.0","""event"",""trial"",""time""
""fullscreenenter"",""0"",""2002""
""fullscreenexit"",""43"",""278478""
","
","
","""event"",""trial"",""time""
""fullscreenenter"",""0"",""2002""
","""event"",""trial"",""time""
""fullscreenexit"",""43"",""278478""
","411","","","","","","","","49","1,0,0","1","countryside","38","probe-175","0.4990586347860226","0.29895227744711433","0.06530900410998075","1","","","","","","","",""
"","html-keyboard-response","183","768802","0.0-99.0-1.0","""event"",""trial"",""time""
""fullscreenenter"",""0"",""2002""
""fullscreenexit"",""43"",""278478""
","
","
","""event"",""trial"",""time""
""fullscreenenter"",""0"",""2002""
","""event"",""trial"",""time""
""fullscreenexit"",""43"",""278478""
","null","<p></p>","null","","","","","","","","","","","","","","","","","","","","","","",""
"","do_trial","184","773587","0.0-100.0-0.0","""event"",""trial"",""time""
""fullscreenenter"",""0"",""2002""
""fullscreenexit"",""43"",""278478""
","
","
","""event"",""trial"",""time""
""fullscreenenter"",""0"",""2002""
","""event"",""trial"",""time""
""fullscreenexit"",""43"",""278478""
","243.20000004768372","","","","","","","","49","0,1,0","1","countryside","39","probe-154","0.5402092471452158","0.2492919399270418","0.17269748057467552","0","","","","","","","",""
"","html-keyboard-response","185","774598","0.0-100.0-1.0","""event"",""trial"",""time""
""fullscreenenter"",""0"",""2002""
""fullscreenexit"",""43"",""278478""
","
","
","""event"",""trial"",""time""
""fullscreenenter"",""0"",""2002""
","""event"",""trial"",""time""
""fullscreenexit"",""43"",""278478""
","null","<p></p>","null","","","","","","","","","","","","","","","","","","","","","","",""
"","do_trial","186","779302","0.0-101.0-0.0","""event"",""trial"",""time""
""fullscreenenter"",""0"",""2002""
""fullscreenexit"",""43"",""278478""
","
","
","""event"",""trial"",""time""
""fullscreenenter"",""0"",""2002""
","""event"",""trial"",""time""
""fullscreenexit"",""43"",""278478""
","167.5","","","","","","","","49","0,0,1","1","countryside","40","probe-204","0.49217630173822996","0.2536251239406651","0.2688103532402139","0","","","","","","","",""
"","html-keyboard-response","187","780308","0.0-101.0-1.0","""event"",""trial"",""time""
""fullscreenenter"",""0"",""2002""
""fullscreenexit"",""43"",""278478""
","
","
","""event"",""trial"",""time""
""fullscreenenter"",""0"",""2002""
","""event"",""trial"",""time""
""fullscreenexit"",""43"",""278478""
","null","<p></p>","null","","","","","","","","","","","","","","","","","","","","","","",""
"","do_trial","188","785291","0.0-102.0-0.0","""event"",""trial"",""time""
""fullscreenenter"",""0"",""2002""
""fullscreenexit"",""43"",""278478""
","
","
","""event"",""trial"",""time""
""fullscreenenter"",""0"",""2002""
","""event"",""trial"",""time""
""fullscreenexit"",""43"",""278478""
","441.7000000476837","","","","","","","","50","0,0,0","1","countryside","41","probe-147","0.41556775259863105","0.2245931539337571","0.24415735566782143","0","","","","","","","",""
"","html-keyboard-response","189","786304","0.0-102.0-1.0","""event"",""trial"",""time""
""fullscreenenter"",""0"",""2002""
""fullscreenexit"",""43"",""278478""
","
","
","""event"",""trial"",""time""
""fullscreenenter"",""0"",""2002""
","""event"",""trial"",""time""
""fullscreenexit"",""43"",""278478""
","null","<p></p>","null","","","","","","","","","","","","","","","","","","","","","","",""
"","do_trial","190","791133","0.0-103.0-0.0","""event"",""trial"",""time""
""fullscreenenter"",""0"",""2002""
""fullscreenexit"",""43"",""278478""
","
","
","""event"",""trial"",""time""
""fullscreenenter"",""0"",""2002""
","""event"",""trial"",""time""
""fullscreenexit"",""43"",""278478""
","300.7999999523163","","","","","","","","49","0,1,0","1","countryside","42","probe-222","0.274344169736749","0.43787014826028675","0.20467442172579645","0","","","","","","","",""
"","html-keyboard-response","191","792144","0.0-103.0-1.0","""event"",""trial"",""time""
""fullscreenenter"",""0"",""2002""
""fullscreenexit"",""43"",""278478""
","
","
","""event"",""trial"",""time""
""fullscreenenter"",""0"",""2002""
","""event"",""trial"",""time""
""fullscreenexit"",""43"",""278478""
","null","<p></p>","null","","","","","","","","","","","","","","","","","","","","","","",""
"","do_trial","192","796972","0.0-104.0-0.0","""event"",""trial"",""time""
""fullscreenenter"",""0"",""2002""
""fullscreenexit"",""43"",""278478""
","
","
","""event"",""trial"",""time""
""fullscreenenter"",""0"",""2002""
","""event"",""trial"",""time""
""fullscreenexit"",""43"",""278478""
","284.59999990463257","","","","","","","","49","1,0,0","1","countryside","43","probe-142","0.20192823728457396","0.36733470345038044","0.29334745929159967","1","","","","","","","",""
"","html-keyboard-response","193","797982","0.0-104.0-1.0","""event"",""trial"",""time""
""fullscreenenter"",""0"",""2002""
""fullscreenexit"",""43"",""278478""
","
","
","""event"",""trial"",""time""
""fullscreenenter"",""0"",""2002""
","""event"",""trial"",""time""
""fullscreenexit"",""43"",""278478""
","null","<p></p>","null","","","","","","","","","","","","","","","","","","","","","","",""
"","do_trial","194","802904","0.0-105.0-0.0","""event"",""trial"",""time""
""fullscreenenter"",""0"",""2002""
""fullscreenexit"",""43"",""278478""
","
","
","""event"",""trial"",""time""
""fullscreenenter"",""0"",""2002""
","""event"",""trial"",""time""
""fullscreenexit"",""43"",""278478""
","391.2000000476837","","","","","","","","50","0,0,0","1","countryside","44","probe-223","0.24838120884713408","0.3622547739821843","0.20676308938096163","0","","","","","","","",""
"","html-keyboard-response","195","803912","0.0-105.0-1.0","""event"",""trial"",""time""
""fullscreenenter"",""0"",""2002""
""fullscreenexit"",""43"",""278478""
","
","
","""event"",""trial"",""time""
""fullscreenenter"",""0"",""2002""
","""event"",""trial"",""time""
""fullscreenexit"",""43"",""278478""
","null","<p></p>","null","","","","","","","","","","","","","","","","","","","","","","",""
"","do_trial","196","808681","0.0-106.0-0.0","""event"",""trial"",""time""
""fullscreenenter"",""0"",""2002""
""fullscreenexit"",""43"",""278478""
","
","
","""event"",""trial"",""time""
""fullscreenenter"",""0"",""2002""
","""event"",""trial"",""time""
""fullscreenexit"",""43"",""278478""
","227.19999980926514","","","","","","","","51","0,1,0","1","countryside","45","probe-52","0.1424644013951686","0.4867819479550427","0.22884052408215064","0","","","","","","","",""
"","html-keyboard-response","197","809694","0.0-106.0-1.0","""event"",""trial"",""time""
""fullscreenenter"",""0"",""2002""
""fullscreenexit"",""43"",""278478""
","
","
","""event"",""trial"",""time""
""fullscreenenter"",""0"",""2002""
","""event"",""trial"",""time""
""fullscreenexit"",""43"",""278478""
","null","<p></p>","null","","","","","","","","","","","","","","","","","","","","","","",""
"","do_trial","198","814500","0.0-107.0-0.0","""event"",""trial"",""time""
""fullscreenenter"",""0"",""2002""
""fullscreenexit"",""43"",""278478""
","
","
","""event"",""trial"",""time""
""fullscreenenter"",""0"",""2002""
","""event"",""trial"",""time""
""fullscreenexit"",""43"",""278478""
","261.7999999523163","","","","","","","","50","0,0,1","1","countryside","46","probe-71","0.10071943644232194","0.44796296250560974","0.2730189056137072","0","","","","","","","",""
"","html-keyboard-response","199","815511","0.0-107.0-1.0","""event"",""trial"",""time""
""fullscreenenter"",""0"",""2002""
""fullscreenexit"",""43"",""278478""
","
","
","""event"",""trial"",""time""
""fullscreenenter"",""0"",""2002""
","""event"",""trial"",""time""
""fullscreenexit"",""43"",""278478""
","null","<p></p>","null","","","","","","","","","","","","","","","","","","","","","","",""
"","do_trial","200","820391","0.0-108.0-0.0","""event"",""trial"",""time""
""fullscreenenter"",""0"",""2002""
""fullscreenexit"",""43"",""278478""
","
","
","""event"",""trial"",""time""
""fullscreenenter"",""0"",""2002""
","""event"",""trial"",""time""
""fullscreenexit"",""43"",""278478""
","341.40000009536743","","","","","","","","49","0,1,0","1","countryside","47","probe-91","0.23523652462145916","0.5431634789046645","0.4650019881452762","0","","","","","","","",""
"","html-keyboard-response","201","821399","0.0-108.0-1.0","""event"",""trial"",""time""
""fullscreenenter"",""0"",""2002""
""fullscreenexit"",""43"",""278478""
","
","
","""event"",""trial"",""time""
""fullscreenenter"",""0"",""2002""
","""event"",""trial"",""time""
""fullscreenexit"",""43"",""278478""
","null","<p></p>","null","","","","","","","","","","","","","","","","","","","","","","",""
"","do_trial","202","826216","0.0-109.0-0.0","""event"",""trial"",""time""
""fullscreenenter"",""0"",""2002""
""fullscreenexit"",""43"",""278478""
","
","
","""event"",""trial"",""time""
""fullscreenenter"",""0"",""2002""
","""event"",""trial"",""time""
""fullscreenexit"",""43"",""278478""
","286.09999990463257","","","","","","","","49","0,1,0","1","countryside","48","probe-38","0.0663540287284028","0.4681715229898458","0.39190841666330595","0","","","","","","","",""
"","html-keyboard-response","203","827225","0.0-109.0-1.0","""event"",""trial"",""time""
""fullscreenenter"",""0"",""2002""
""fullscreenexit"",""43"",""278478""
","
","
","""event"",""trial"",""time""
""fullscreenenter"",""0"",""2002""
","""event"",""trial"",""time""
""fullscreenexit"",""43"",""278478""
","null","<p></p>","null","","","","","","","","","","","","","","","","","","","","","","",""
"","do_trial","204","832092","0.0-110.0-0.0","""event"",""trial"",""time""
""fullscreenenter"",""0"",""2002""
""fullscreenexit"",""43"",""278478""
","
","
","""event"",""trial"",""time""
""fullscreenenter"",""0"",""2002""
","""event"",""trial"",""time""
""fullscreenexit"",""43"",""278478""
","330.90000009536743","","","","","","","","50","0,1,1","1","countryside","49","probe-93","0.11701101350919237","0.6821148290365061","0.4781042535437654","1","","","","","","","",""
"","html-keyboard-response","205","833099","0.0-110.0-1.0","""event"",""trial"",""time""
""fullscreenenter"",""0"",""2002""
""fullscreenexit"",""43"",""278478""
","
","
","""event"",""trial"",""time""
""fullscreenenter"",""0"",""2002""
","""event"",""trial"",""time""
""fullscreenexit"",""43"",""278478""
","null","<p></p>","null","","","","","","","","","","","","","","","","","","","","","","",""
"","do_trial","206","837984","0.0-111.0-0.0","""event"",""trial"",""time""
""fullscreenenter"",""0"",""2002""
""fullscreenexit"",""43"",""278478""
","
","
","""event"",""trial"",""time""
""fullscreenenter"",""0"",""2002""
","""event"",""trial"",""time""
""fullscreenexit"",""43"",""278478""
","355.5","","","","","","","","50","0,1,0","1","countryside","50","probe-224","0.1108647623980531","0.7577293086814448","0.46651878560492954","1","","","","","","","",""
"","html-keyboard-response","207","838994","0.0-111.0-1.0","""event"",""trial"",""time""
""fullscreenenter"",""0"",""2002""
""fullscreenexit"",""43"",""278478""
","
","
","""event"",""trial"",""time""
""fullscreenenter"",""0"",""2002""
","""event"",""trial"",""time""
""fullscreenexit"",""43"",""278478""
