"success","trial_type","trial_index","time_elapsed","internal_node_id","interactions","blur_events","focus_events","fullscreenenter_events","fullscreenexit_events","rt","stimulus","key_press","subject_id","participant_id","age","gender","prompt","response","choice_outcomes","context_n","context_img_id","trial_n","probe_img_id","pR_red","pR_white","pR_black","outcome","contextArray_ind","validImageProbes","invalidImageProbes","pRew_Red","pRew_White","pRew_Black","availableForMemProbe","choice_blocks"
"true","fullscreen","0","4109","0.0-0.0","""event"",""trial"",""time""
""fullscreenenter"",""0"",""3178""
","
","
","""event"",""trial"",""time""
""fullscreenenter"",""0"",""3178""
","
","","","","","","","","","","","","","","","","","","","","","","","","","",""
"","pavlovia","1","4114","0.0-1.0","""event"",""trial"",""time""
""fullscreenenter"",""0"",""3178""
","
","
","""event"",""trial"",""time""
""fullscreenenter"",""0"",""3178""
","
","","","","","","","","","","","","","","","","","","","","","","","","","",""
"","instruc1","2","49315","0.0-2.0","""event"",""trial"",""time""
""fullscreenenter"",""0"",""3178""
","
","
","""event"",""trial"",""time""
""fullscreenenter"",""0"",""3178""
","
","null","run_exp/static/audio/clip_1_welcome.m4a","null","259","923","13","Male","<div class='center'><p>Welcome! This is the first part of the study. It will last ~30 minutes. In part 1 and part 2 of the study, you are the head captain of a pirate ship traveling around the world to different islands. You will play a few different games throughout these two parts. Here is an overview of them:</p><br><p>Part 1 (today)</p><p>1. Instructions, practice game, and quiz</p><p>2. Pick a pirate game on 6 different islands</p><br><p>Part 2 (tomorrow)</p><p>3. Pick a pirate game and memory game</p><p>4. Where did you see this ship? </p></div>","","","","","","","","","","","","","","","","","",""
"","html-keyboard-response","3","51032","0.0-3.0","""event"",""trial"",""time""
""fullscreenenter"",""0"",""3178""
","
","
","""event"",""trial"",""time""
""fullscreenenter"",""0"",""3178""
","
","1703","<div class='center'><p>Welcome! This is the first part of the study. It will last ~30 minutes. In part 1 and part 2 of the study, you are the head captain of a pirate ship traveling around the world to different islands. You will play a few different games throughout these two parts. Here is an overview of them:</p><br><p>Part 1 (today)</p><p>1. Instructions, practice game, and quiz</p><p>2. Pick a pirate game on 6 different islands</p><br><p>Part 2 (tomorrow)</p><p>3. Pick a pirate game and memory game</p><p>4. Where did you see this ship? </p><p><b>[Press the space bar to continue]</b></p></div>","32","","","","","","","","","","","","","","","","","","","","","","",""
"","instruc2","4","56353","0.0-4.0","""event"",""trial"",""time""
""fullscreenenter"",""0"",""3178""
","
","
","""event"",""trial"",""time""
""fullscreenenter"",""0"",""3178""
","
","null","run_exp/static/audio/clip_2_different_places.m4a","null","","","","","<div class='center'><p>Today, you’ll visit these 6 islands on your journey. You'll be able to see these islands from your ship.</p><p><img src='run_exp/static/images/contexts/all_contexts.png' height='500'></p></div>","","","","","","","","","","","","","","","","","",""
"","html-keyboard-response","5","57946","0.0-5.0","""event"",""trial"",""time""
""fullscreenenter"",""0"",""3178""
","
","
","""event"",""trial"",""time""
""fullscreenenter"",""0"",""3178""
","
","1590.5","<div class='center'><p>Today, you’ll visit these 6 islands on your journey. You'll be able to see these islands from your ship.</p><p><img src='run_exp/static/images/contexts/all_contexts.png' height='500'></p><p><b>[Press the space bar to continue]</b></p></div>","32","","","","","","","","","","","","","","","","","","","","","","",""
"","instruc3","6","67634","0.0-6.0","""event"",""trial"",""time""
""fullscreenenter"",""0"",""3178""
","
","
","""event"",""trial"",""time""
""fullscreenenter"",""0"",""3178""
","
","null","run_exp/static/audio/clip_3_goal_of_game_1.m4a","null","","","","","<div class='center'><p> The pirates on your ship will rob other ships as they leave the island.</p> These ships have just sold their goods to the islanders, so they will be filled with lots and lots of gold.</p><p><img src='run_exp/static/images/tutorial/ship_center.png' height='400'></p></div>","","","","","","","","","","","","","","","","","",""
"","html-keyboard-response","7","68521","0.0-7.0","""event"",""trial"",""time""
""fullscreenenter"",""0"",""3178""
","
","
","""event"",""trial"",""time""
""fullscreenenter"",""0"",""3178""
","
","885","<div class='center'><p> The pirates on your ship will rob other ships as they leave the island.</p> These ships have just sold their goods to the islanders, so they will be filled with lots and lots of gold.</p><p><img src='run_exp/static/images/tutorial/ship_center.png' height='400'></p><p><b>[Press the space bar to continue]</b></p></div>","32","","","","","","","","","","","","","","","","","","","","","","",""
"","instruc4","8","96552","0.0-8.0","""event"",""trial"",""time""
""fullscreenenter"",""0"",""3178""
","
","
","""event"",""trial"",""time""
""fullscreenenter"",""0"",""3178""
","
","null","run_exp/static/audio/clip_4_goal_of_game_2.m4a","null","","","","","<div class='center'><p>As the head captain, you do not have to rob any ships yourself. Another pirate will be doing the robbing for you. First, you will choose a pirate to rob the next ship.</p><p><img src='run_exp/static/images/tutorial/pirates_all_crop.png' height='200'></p><p>Then, you'll see if the pirate successfully robbed the ship of their gold. If they were successful, then you'll get a stack of gold coins like this:</p><p><img src='run_exp/static/images/tutorial/reward.png' height='150'></p><p> If they were <b>not</b> successful, then you'll get no gold coins, and you'll see a big red x like this: </p><p><img src='run_exp/static/images/tutorial/reward_no.png' height='150'></p><p> How much bonus money you make is based on how many gold coins you collect.</p><div>","","","","","","","","","","","","","","","","","",""
"","html-keyboard-response","9","99857","0.0-9.0","""event"",""trial"",""time""
""fullscreenenter"",""0"",""3178""
","
","
","""event"",""trial"",""time""
""fullscreenenter"",""0"",""3178""
","
","3302.5","<div class='center'><p>As the head captain, you do not have to rob any ships yourself. Another pirate will be doing the robbing for you. First, you will choose a pirate to rob the next ship.</p><p><img src='run_exp/static/images/tutorial/pirates_all_crop.png' height='200'></p><p>Then, you'll see if the pirate successfully robbed the ship of their gold. If they were successful, then you'll get a stack of gold coins like this:</p><p><img src='run_exp/static/images/tutorial/reward.png' height='150'></p><p> If they were <b>not</b> successful, then you'll get no gold coins, and you'll see a big red x like this: </p><p><img src='run_exp/static/images/tutorial/reward_no.png' height='150'></p><p> How much bonus money you make is based on how many gold coins you collect.</p<p><b>[Press the space bar to continue]</b></p></div>","32","","","","","","","","","","","","","","","","","","","","","","",""
"","instruc5","10","124236","0.0-10.0","""event"",""trial"",""time""
""fullscreenenter"",""0"",""3178""
","
","
","""event"",""trial"",""time""
""fullscreenenter"",""0"",""3178""
","
","24377.900000000373","run_exp/static/audio/clip_5_probabilistic.m4a","49","","","","","<div class='center'><p>Even the most skilled pirate can not rob EVERY ship.</p><p> Some ships will have very strong protections against pirate attacks.</p><p> Blue beard, here, is very, very good at robbing ships, but he won't be successful every time he tries to rob one.</p><p> You can press the <b>‘1’</b> key on the keyboard to choose him.</p><p> Try choosing him 10 times to see how often he succeeds at robbing a ship. </p><p><img src='run_exp/static/images/tutorial/blue.png' height='500'></p></div>","","","","","","","","","","","","","","","","","",""
"","html-keyboard-response","11","125750","0.0-11.0","""event"",""trial"",""time""
""fullscreenenter"",""0"",""3178""
","
","
","""event"",""trial"",""time""
""fullscreenenter"",""0"",""3178""
","
","null","<div class='center'><p><img src='run_exp/static/images/tutorial/blue_win.png' height='500'></p></div>","null","","","","","","","","","","","","","","","","","","","","","","",""
"","html-keyboard-response","12","125853","0.0-12.0","""event"",""trial"",""time""
""fullscreenenter"",""0"",""3178""
","
","
","""event"",""trial"",""time""
""fullscreenenter"",""0"",""3178""
","
","101.60000000009313","<div class='center'><img src='run_exp/static/images/tutorial/blue.png' height='500'></p></div>","49","","","","","","","","","","","","","","","","","","","","","","",""
"","html-keyboard-response","13","127359","0.0-13.0","""event"",""trial"",""time""
""fullscreenenter"",""0"",""3178""
","
","
","""event"",""trial"",""time""
""fullscreenenter"",""0"",""3178""
","
","null","<div class='center'><p><img src='run_exp/static/images/tutorial/blue_win.png' height='500'></p></div>","null","","","","","","","","","","","","","","","","","","","","","","",""
"","html-keyboard-response","14","127577","0.0-14.0","""event"",""trial"",""time""
""fullscreenenter"",""0"",""3178""
","
","
","""event"",""trial"",""time""
""fullscreenenter"",""0"",""3178""
","
","216.5","<div class='center'><img src='run_exp/static/images/tutorial/blue.png' height='500'></p></div>","49","","","","","","","","","","","","","","","","","","","","","","",""
"","html-keyboard-response","15","129079","0.0-15.0","""event"",""trial"",""time""
""fullscreenenter"",""0"",""3178""
","
","
","""event"",""trial"",""time""
""fullscreenenter"",""0"",""3178""
","
","null","<div class='center'><p><img src='run_exp/static/images/tutorial/blue_win.png' height='500'></p></div>","null","","","","","","","","","","","","","","","","","","","","","","",""
"","html-keyboard-response","16","131481","0.0-16.0","""event"",""trial"",""time""
""fullscreenenter"",""0"",""3178""
","
","
","""event"",""trial"",""time""
""fullscreenenter"",""0"",""3178""
","
","2400.399999999907","<div class='center'><img src='run_exp/static/images/tutorial/blue.png' height='500'></p></div>","49","","","","","","","","","","","","","","","","","","","","","","",""
"","html-keyboard-response","17","132992","0.0-17.0","""event"",""trial"",""time""
""fullscreenenter"",""0"",""3178""
","
","
","""event"",""trial"",""time""
""fullscreenenter"",""0"",""3178""
","
","null","<div class='center'><p><img src='run_exp/static/images/tutorial/blue_no_win.png' height='500'></p></div>","null","","","","","","","","","","","","","","","","","","","","","","",""
"","html-keyboard-response","18","133969","0.0-18.0","""event"",""trial"",""time""
""fullscreenenter"",""0"",""3178""
","
","
","""event"",""trial"",""time""
""fullscreenenter"",""0"",""3178""
","
","974.7999999998137","<div class='center'><img src='run_exp/static/images/tutorial/blue.png' height='500'></p></div>","49","","","","","","","","","","","","","","","","","","","","","","",""
"","html-keyboard-response","19","135475","0.0-19.0","""event"",""trial"",""time""
""fullscreenenter"",""0"",""3178""
","
","
","""event"",""trial"",""time""
""fullscreenenter"",""0"",""3178""
","
","null","<div class='center'><p><img src='run_exp/static/images/tutorial/blue_win.png' height='500'></p></div>","null","","","","","","","","","","","","","","","","","","","","","","",""
"","html-keyboard-response","20","136146","0.0-20.0","""event"",""trial"",""time""
""fullscreenenter"",""0"",""3178""
","
","
","""event"",""trial"",""time""
""fullscreenenter"",""0"",""3178""
","
","669.5","<div class='center'><img src='run_exp/static/images/tutorial/blue.png' height='500'></p></div>","49","","","","","","","","","","","","","","","","","","","","","","",""
"","html-keyboard-response","21","137657","0.0-21.0","""event"",""trial"",""time""
""fullscreenenter"",""0"",""3178""
","
","
","""event"",""trial"",""time""
""fullscreenenter"",""0"",""3178""
","
","null","<div class='center'><p><img src='run_exp/static/images/tutorial/blue_win.png' height='500'></p></div>","null","","","","","","","","","","","","","","","","","","","","","","",""
"","html-keyboard-response","22","138193","0.0-22.0","""event"",""trial"",""time""
""fullscreenenter"",""0"",""3178""
","
","
","""event"",""trial"",""time""
""fullscreenenter"",""0"",""3178""
","
","534.2999999998137","<div class='center'><img src='run_exp/static/images/tutorial/blue.png' height='500'></p></div>","49","","","","","","","","","","","","","","","","","","","","","","",""
"","html-keyboard-response","23","139701","0.0-23.0","""event"",""trial"",""time""
""fullscreenenter"",""0"",""3178""
","
","
","""event"",""trial"",""time""
""fullscreenenter"",""0"",""3178""
","
","null","<div class='center'><p><img src='run_exp/static/images/tutorial/blue_win.png' height='500'></p></div>","null","","","","","","","","","","","","","","","","","","","","","","",""
"","html-keyboard-response","24","140243","0.0-24.0","""event"",""trial"",""time""
""fullscreenenter"",""0"",""3178""
","
","
","""event"",""trial"",""time""
""fullscreenenter"",""0"",""3178""
","
","527.4000000003725","<div class='center'><img src='run_exp/static/images/tutorial/blue.png' height='500'></p></div>","49","","","","","","","","","","","","","","","","","","","","","","",""
"","html-keyboard-response","25","141751","0.0-25.0","""event"",""trial"",""time""
""fullscreenenter"",""0"",""3178""
","
","
","""event"",""trial"",""time""
""fullscreenenter"",""0"",""3178""
","
","null","<div class='center'><p><img src='run_exp/static/images/tutorial/blue_no_win.png' height='500'></p></div>","null","","","","","","","","","","","","","","","","","","","","","","",""
"","html-keyboard-response","26","142122","0.0-26.0","""event"",""trial"",""time""
""fullscreenenter"",""0"",""3178""
","
","
","""event"",""trial"",""time""
""fullscreenenter"",""0"",""3178""
","
","369.5","<div class='center'><img src='run_exp/static/images/tutorial/blue.png' height='500'></p></div>","49","","","","","","","","","","","","","","","","","","","","","","",""
"","html-keyboard-response","27","143633","0.0-27.0","""event"",""trial"",""time""
""fullscreenenter"",""0"",""3178""
","
","
","""event"",""trial"",""time""
""fullscreenenter"",""0"",""3178""
","
","null","<div class='center'><p><img src='run_exp/static/images/tutorial/blue_win.png' height='500'></p></div>","null","","","","","","","","","","","","","","","","","","","","","","",""
"","html-keyboard-response","28","143991","0.0-28.0","""event"",""trial"",""time""
""fullscreenenter"",""0"",""3178""
","
","
","""event"",""trial"",""time""
""fullscreenenter"",""0"",""3178""
","
","356.3000000002794","<div class='center'><img src='run_exp/static/images/tutorial/blue.png' height='500'></p></div>","49","","","","","","","","","","","","","","","","","","","","","","",""
"","html-keyboard-response","29","145500","0.0-29.0","""event"",""trial"",""time""
""fullscreenenter"",""0"",""3178""
","
","
","""event"",""trial"",""time""
""fullscreenenter"",""0"",""3178""
","
","null","<div class='center'><p><img src='run_exp/static/images/tutorial/blue_win.png' height='500'></p></div>","null","","","","","","","","","","","","","","","","","","","","","","",""
"","instruc6","30","151057","0.0-30.0","""event"",""trial"",""time""
""fullscreenenter"",""0"",""3178""
","
","
","""event"",""trial"",""time""
""fullscreenenter"",""0"",""3178""
","
","null","run_exp/static/audio/clip_6_blue_beard_outcome.m4a","null","","","","","<div class='center'><p> See, he succeeded in robbing the ships most of the time but not every time. </p></div>","","","","","","","","","","","","","","","","","",""
"","html-keyboard-response","31","152220","0.0-31.0","""event"",""trial"",""time""
""fullscreenenter"",""0"",""3178""
","
","
","""event"",""trial"",""time""
""fullscreenenter"",""0"",""3178""
","
","1161.9000000003725","<div class='center'><p> See, he succeeded in robbing the ships most of the time but not every time. </p><p><b>[Press the space bar to continue]</b></p></div>","32","","","","","","","","","","","","","","","","","","","","","","",""
"","audio-keyboard-response","32","169560","0.0-32.0","""event"",""trial"",""time""
""fullscreenenter"",""0"",""3178""
","
","
","""event"",""trial"",""time""
""fullscreenenter"",""0"",""3178""
","
","17337.599999999627","run_exp/static/audio/clip_7_pick_pirate.m4a","49","","","","","","","","","","","","","","","","","","","","","","",""
"","audio-keyboard-response","33","173741","0.0-33.0-0.0","""event"",""trial"",""time""
""fullscreenenter"",""0"",""3178""
","
","
","""event"",""trial"",""time""
""fullscreenenter"",""0"",""3178""
","
","4177.0999999996275","run_exp/static/audio/clip_8_chosen_pirate_win.m4a","32","","","","","","","","","","","","","","","","","","","","","","",""
"","audio-keyboard-response","34","176432","0.0-33.0-1.0","""event"",""trial"",""time""
""fullscreenenter"",""0"",""3178""
","
","
","""event"",""trial"",""time""
""fullscreenenter"",""0"",""3178""
","
","2686.7999999998137","run_exp/static/audio/clip_9_pick_a_pirate_again.m4a","51","","","","","","","","","","","","","","","","","","","","","","",""
"","audio-keyboard-response","35","178086","0.0-34.0-0.0","""event"",""trial"",""time""
""fullscreenenter"",""0"",""3178""
","
","
","""event"",""trial"",""time""
""fullscreenenter"",""0"",""3178""
","
","1649.7999999998137","run_exp/static/audio/clip_10_chosen_pirate_loss.m4a","32","","","","","","","","","","","","","","","","","","","","","","",""
"","instruc9","36","183640","0.0-35.0-0.0","""event"",""trial"",""time""
""fullscreenenter"",""0"",""3178""
","
","
","""event"",""trial"",""time""
""fullscreenenter"",""0"",""3178""
","
","null","run_exp/static/audio/clip_11_time_out.m4a","null","","","","","<div class='center'><p>If you don’t make your choice fast enough, you’ll have to wait a few seconds before you can make another one. </p><p><img src='run_exp/static/images/miscellaneous/hurry_up.png' height='500'></p></div>","","","","","","","","","","","","","","","","","",""
"","html-keyboard-response","37","184752","0.0-35.0-1.0","""event"",""trial"",""time""
""fullscreenenter"",""0"",""3178""
","
","
","""event"",""trial"",""time""
""fullscreenenter"",""0"",""3178""
","
","1110.3999999999069","<div class='center'><p>If you don’t make your choice fast enough, you’ll have to wait a few seconds before you can make another one. </p><p><img src='run_exp/static/images/miscellaneous/hurry_up.png' height='500'></p><p><b>[Press the space bar to continue]</b></p></div>","32","","","","","","","","","","","","","","","","","","","","","","",""
"","instruc10","38","223896","0.0-35.0-2.0","""event"",""trial"",""time""
""fullscreenenter"",""0"",""3178""
","
","
","""event"",""trial"",""time""
""fullscreenenter"",""0"",""3178""
","
","null","run_exp/static/audio/clip_12_probe.m4a","null","","","","","<div class='center'><p>Once you've chosen a pirate, you’ll be shown the ship they are robbing. You will never rob the same ship twice. Ships can be told apart from one another by the image on them. These are the goods that they sell. See, this ship has a travel mug on it. </p><p> You’ll have to remember which island you saw each ship on. You will win more gold coins and hence more bonus money if you remember correctly! To help you remember, you can imagine a story. For example, here, you could imagine a mug full of water in the desert. Or, as another example, if on the forest island, your pirate robbed a ship with an apple on it, you could imagine an apple falling from a tree in the forest. </p><p><img src='run_exp/static/images/tutorial/example_probe.png' height='500'></p></div>","","","","","","","","","","","","","","","","","",""
"","html-keyboard-response","39","225139","0.0-35.0-3.0","""event"",""trial"",""time""
""fullscreenenter"",""0"",""3178""
","
","
","""event"",""trial"",""time""
""fullscreenenter"",""0"",""3178""
","
","1240.2999999998137","<div class='center'><p>Once you've chosen a pirate, you’ll be shown the ship they are robbing. You will never rob the same ship twice. Ships can be told apart from one another by the image on them. These are the goods that they sell. See, this ship has a travel mug on it. </p><p> You’ll have to remember which island you saw each ship on. You will win more gold coins and hence more bonus money if you remember correctly! To help you remember, you can imagine a story. For example, here, you could imagine a mug full of water in the desert. Or, as another example, if on the forest island, your pirate robbed a ship with an apple on it, you could imagine an apple falling from a tree in the forest. </p><p><img src='run_exp/static/images/tutorial/example_probe.png' height='500'></p><p><b>[Press the space bar to continue]</b></p></div>","32","","","","","","","","","","","","","","","","","","","","","","",""
"","instruc11","40","241561","0.0-35.0-4.0","""event"",""trial"",""time""
""fullscreenenter"",""0"",""3178""
","
","
","""event"",""trial"",""time""
""fullscreenenter"",""0"",""3178""
","
","null","run_exp/static/audio/clip_13_changepoint.m4a","null","","","","","<div class='center'><p>How successful a pirate is at robbing ships will depend on the island you’re on.</p><p> A pirate may have visited this island many times before and gained a lot of practice robbing ships there.</p><p>So, they’re more likely to be successful than a pirate who has never visited the island before.</p></div>","","","","","","","","","","","","","","","","","",""
"","html-keyboard-response","41","245237","0.0-35.0-5.0","""event"",""trial"",""time""
""fullscreenenter"",""0"",""3178""
","
","
","""event"",""trial"",""time""
""fullscreenenter"",""0"",""3178""
","
","3673.2999999998137","<div class='center'><p>How successful a pirate is at robbing ships will depend on the island you’re on.</p><p> A pirate may have visited this island many times before and gained a lot of practice robbing ships there.</p><p>So, they’re more likely to be successful than a pirate who has never visited the island before.</p><p><b>[Press the space bar to continue]</b></p></div>","32","","","","","","","","","","","","","","","","","","","","","","",""
"","instruc12","42","286379","0.0-35.0-6.0","""event"",""trial"",""time""
""fullscreenenter"",""0"",""3178""
","
","
","""event"",""trial"",""time""
""fullscreenenter"",""0"",""3178""
","
","null","run_exp/static/audio/clip_14_drift.m4a","null","","","","","<div class='center'><p>How successful a pirate is at robbing ships can also change over the time spent on the island. </p><p> Ships may hear from islanders about the pirates coming and will improve their protections against the attack. This may make it harder to rob them.</p><p> Ships may also become lazy and weaken the strength of their protections. This may make it easier to rob them.</p><br><p>Things are always changing on the high seas! So, try your best to pay attention!</p><p><img src='run_exp/static/images/tutorial/contingency.png' height='500'></p></div>","","","","","","","","","","","","","","","","","",""
"","html-keyboard-response","43","287029","0.0-35.0-7.0","""event"",""trial"",""time""
""fullscreenenter"",""0"",""3178""
","
","
","""event"",""trial"",""time""
""fullscreenenter"",""0"",""3178""
","
","646.6000000000931","<div class='center'><p>How successful a pirate is at robbing ships can also change over the time spent on the island. </p><p> Ships may hear from islanders about the pirates coming and will improve their protections against the attack. This may make it harder to rob them.</p><p> Ships may also become lazy and weaken the strength of their protections. This may make it easier to rob them.</p><br><p>Things are always changing on the high seas! So, try your best to pay attention!</p><p><img src='run_exp/static/images/tutorial/contingency.png' height='500'></p><p><b>[Press the space bar to continue]</b></p></div>","32","","","","","","","","","","","","","","","","","","","","","","",""
"","instruc13","44","322237","0.0-35.0-8.0","""event"",""trial"",""time""
""fullscreenenter"",""0"",""3178""
","
","
","""event"",""trial"",""time""
""fullscreenenter"",""0"",""3178""
","
","null","run_exp/static/audio/clip_15_summary.m4a","null","","","","","<div class='center'><p>Let's go over the instructions quickly again. You have two important things to do: </p><b><p> 1. Pick the pirate who is the best at robbing ships on the current island. </p></b><b><p> 2. Remember on which island a ship was robbed.</p> </b><p>The amount of bonus money you can win depends on both.</p><p><br><p>Let’s try a practice game. The game will start by showing you the pirates. First, pick a pirate using the <b> 1, 2, 3 </b> keys on your keyboard. When you are shown a ship, try to remember which island you’re on by making up a story.</p><p>This is just a practice game, so you’re not playing for money. </p><p> Good luck! This game will be very difficult but try your best!</p></div>","","","","","","","","","","","","","","","","","",""
"","html-keyboard-response","45","323332","0.0-35.0-9.0","""event"",""trial"",""time""
""fullscreenenter"",""0"",""3178""
","
","
","""event"",""trial"",""time""
""fullscreenenter"",""0"",""3178""
","
","1092.5","<div class='center'><p>Let's go over the instructions quickly again. You have two important things to do: </p><b><p> 1. Pick the pirate who is the best at robbing ships on the current island. </p></b><b><p> 2. Remember on which island a ship was robbed.</p> </b><p>The amount of bonus money you can win depends on both.</p><p><br><p>Let’s try a practice game. The game will start by showing you the pirates. First, pick a pirate using the <b> 1, 2, 3 </b> keys on your keyboard. When you are shown a ship, try to remember which island you’re on by making up a story.</p><p>This is just a practice game, so you’re not playing for money. </p><p> Good luck! This game will be very difficult but try your best!</p><p><b>[Press the space bar to continue]</b></p></div>","32","","","","","","","","","","","","","","","","","","","","","","",""
"","do_welcome","46","327345","0.0-35.0-10.0","""event"",""trial"",""time""
""fullscreenenter"",""0"",""3178""
","
","
","""event"",""trial"",""time""
""fullscreenenter"",""0"",""3178""
","
","null","","","","","","","","null","","","","","","","","","","","","","","","","",""
"","do_trial","47","334506","0.0-35.0-11.0","""event"",""trial"",""time""
""fullscreenenter"",""0"",""3178""
","
","
","""event"",""trial"",""time""
""fullscreenenter"",""0"",""3178""
","
","2645.899999999907","","","","","","","","51","1,0,0","","","","","","","","","","","","","","","",""
"","html-keyboard-response","48","335527","0.0-36.0-0.0","""event"",""trial"",""time""
""fullscreenenter"",""0"",""3178""
","
","
","""event"",""trial"",""time""
""fullscreenenter"",""0"",""3178""
","
","null","<p></p>","null","","","","","","","","","","","","","","","","","","","","","","",""
"","do_trial","49","341746","0.0-36.0-1.0","""event"",""trial"",""time""
""fullscreenenter"",""0"",""3178""
","
","
","""event"",""trial"",""time""
""fullscreenenter"",""0"",""3178""
","
","1703.1000000000931","","","","","","","","50","1,1,0","","","","","","","","","","","","","","","",""
"","html-keyboard-response","50","342750","0.0-37.0-0.0","""event"",""trial"",""time""
""fullscreenenter"",""0"",""3178""
","
","
","""event"",""trial"",""time""
""fullscreenenter"",""0"",""3178""
","
","null","<p></p>","null","","","","","","","","","","","","","","","","","","","","","","",""
"","do_trial","51","348250","0.0-37.0-1.0","""event"",""trial"",""time""
""fullscreenenter"",""0"",""3178""
","
","
","""event"",""trial"",""time""
""fullscreenenter"",""0"",""3178""
","
","977.7999999998137","","","","","","","","49","1,0,1","","","","","","","","","","","","","","","",""
"","html-keyboard-response","52","349264","0.0-38.0-0.0","""event"",""trial"",""time""
""fullscreenenter"",""0"",""3178""
","
","
","""event"",""trial"",""time""
""fullscreenenter"",""0"",""3178""
","
","null","<p></p>","null","","","","","","","","","","","","","","","","","","","","","","",""
"","do_trial","53","355597","0.0-38.0-1.0","""event"",""trial"",""time""
""fullscreenenter"",""0"",""3178""
","
","
","""event"",""trial"",""time""
""fullscreenenter"",""0"",""3178""
","
","1807.6000000000931","","","","","","","","51","0,1,0","","","","","","","","","","","","","","","",""
"","html-keyboard-response","54","356602","0.0-39.0-0.0","""event"",""trial"",""time""
""fullscreenenter"",""0"",""3178""
","
","
","""event"",""trial"",""time""
""fullscreenenter"",""0"",""3178""
","
","null","<p></p>","null","","","","","","","","","","","","","","","","","","","","","","",""
"","do_trial","55","361630","0.0-39.0-1.0","""event"",""trial"",""time""
""fullscreenenter"",""0"",""3178""
","
","
","""event"",""trial"",""time""
""fullscreenenter"",""0"",""3178""
","
","507.79999999981374","","","","","","","","50","1,0,0","","","","","","","","","","","","","","","",""
"","do_bye","56","363145","0.0-40.0-0.0","""event"",""trial"",""time""
""fullscreenenter"",""0"",""3178""
","
","
","""event"",""trial"",""time""
""fullscreenenter"",""0"",""3178""
","
","null","","","","","","","","null","","","","","","","","","","","","","","","","",""
"","do_travel","57","372163","0.0-40.0-1.0","""event"",""trial"",""time""
""fullscreenenter"",""0"",""3178""
","
","
","""event"",""trial"",""time""
""fullscreenenter"",""0"",""3178""
","
","null","","","","","","","","null","","","","","","","","","","","","","","","","",""
"","do_welcome","58","376183","0.0-40.0-2.0","""event"",""trial"",""time""
""fullscreenenter"",""0"",""3178""
","
","
","""event"",""trial"",""time""
""fullscreenenter"",""0"",""3178""
","
","null","","","","","","","","null","","","","","","","","","","","","","","","","",""
"","do_trial","59","382475","0.0-40.0-3.0","""event"",""trial"",""time""
""fullscreenenter"",""0"",""3178""
","
","
","""event"",""trial"",""time""
""fullscreenenter"",""0"",""3178""
","
","1774.3000000002794","","","","","","","","50","1,0,0","","","","","","","","","","","","","","","",""
"","html-keyboard-response","60","383485","0.0-41.0-0.0","""event"",""trial"",""time""
""fullscreenenter"",""0"",""3178""
","
","
","""event"",""trial"",""time""
""fullscreenenter"",""0"",""3178""
","
","null","<p></p>","null","","","","","","","","","","","","","","","","","","","","","","",""
"","do_trial","61","388721","0.0-41.0-1.0","""event"",""trial"",""time""
""fullscreenenter"",""0"",""3178""
","
","
","""event"",""trial"",""time""
""fullscreenenter"",""0"",""3178""
","
","709.8000000002794","","","","","","","","51","1,0,1","","","","","","","","","","","","","","","",""
"","html-keyboard-response","62","389731","0.0-42.0-0.0","""event"",""trial"",""time""
""fullscreenenter"",""0"",""3178""
","
","
","""event"",""trial"",""time""
""fullscreenenter"",""0"",""3178""
","
","null","<p></p>","null","","","","","","","","","","","","","","","","","","","","","","",""
"","do_trial","63","395006","0.0-42.0-1.0","""event"",""trial"",""time""
""fullscreenenter"",""0"",""3178""
","
","
","""event"",""trial"",""time""
""fullscreenenter"",""0"",""3178""
","
","740.6999999997206","","","","","","","","49","1,1,0","","","","","","","","","","","","","","","",""
"","html-keyboard-response","64","396009","0.0-43.0-0.0","""event"",""trial"",""time""
""fullscreenenter"",""0"",""3178""
","
","
","""event"",""trial"",""time""
""fullscreenenter"",""0"",""3178""
","
","null","<p></p>","null","","","","","","","","","","","","","","","","","","","","","","",""
"","do_trial","65","401090","0.0-43.0-1.0","""event"",""trial"",""time""
""fullscreenenter"",""0"",""3178""
","
","
","""event"",""trial"",""time""
""fullscreenenter"",""0"",""3178""
","
","560","","","","","","","","51","0,0,1","","","","","","","","","","","","","","","",""
"","html-keyboard-response","66","402101","0.0-44.0-0.0","""event"",""trial"",""time""
""fullscreenenter"",""0"",""3178""
","
","
","""event"",""trial"",""time""
""fullscreenenter"",""0"",""3178""
","
","null","<p></p>","null","","","","","","","","","","","","","","","","","","","","","","",""
"","do_trial","67","407159","0.0-44.0-1.0","""event"",""trial"",""time""
""fullscreenenter"",""0"",""3178""
","
","
","""event"",""trial"",""time""
""fullscreenenter"",""0"",""3178""
","
","544.5","","","","","","","","49","1,0,1","","","","","","","","","","","","","","","",""
"","html-keyboard-response","68","413463","0.0-45.0-0.0","""event"",""trial"",""time""
""fullscreenenter"",""0"",""3178""
","
","
","""event"",""trial"",""time""
""fullscreenenter"",""0"",""3178""
","
","6301.399999999907","<div class='center'><p><img src='run_exp/static/images/tutorial/prac_best_pirate.png'  height='500'></p></div>","51","","","","","","","","","","","","","","","","","","","","","","",""
"","html-keyboard-response","69","415412","0.0-46.0-0.0","""event"",""trial"",""time""
""fullscreenenter"",""0"",""3178""
","
","
","""event"",""trial"",""time""
""fullscreenenter"",""0"",""3178""
","
","1947.5","<div class='center'><p>That's incorrect! Red beard was the best.</p><p><b>[Press the space bar to continue]</b></p></div>","32","","","","","","","","","","","","","","","","","","","","","","",""
"","html-keyboard-response","70","420209","0.0-46.0-1.0","""event"",""trial"",""time""
""fullscreenenter"",""0"",""3178""
","
","
","""event"",""trial"",""time""
""fullscreenenter"",""0"",""3178""
","
","4794.899999999907","<div class='center'><p><img src='run_exp/static/images/tutorial/prac_source.png'  height='500'></p></div>","50","","","","","","","","","","","","","","","","","","","","","","",""
"","html-keyboard-response","71","421898","0.0-47.0-0.0","""event"",""trial"",""time""
""fullscreenenter"",""0"",""3178""
","
","
","""event"",""trial"",""time""
""fullscreenenter"",""0"",""3178""
","
","1687","<div class='center'><p>That's correct! You saw this ship on the cavern island.</p><p><b>[Press the space bar to continue]</b></p></div>","32","","","","","","","","","","","","","","","","","","","","","","",""
"","quiz_beginning","72","433607","0.0-47.0-1.0","""event"",""trial"",""time""
""fullscreenenter"",""0"",""3178""
","
","
","""event"",""trial"",""time""
""fullscreenenter"",""0"",""3178""
","
","null","run_exp/static/audio/clip_16_quiz_intro.m4a","null","","","","","<div class='center'><p>Good job on the practice game! Now, you will be asked some true or false questions to make sure you really understand the rules of the game.</p><p> Press <b>'1'</b> on the keyboard for true and press <b>'2'</b> for false.</p></div>","","","","","","","","","","","","","","","","","",""
"","audio-keyboard-response","73","440958","0.0-47.0-2.0","""event"",""trial"",""time""
""fullscreenenter"",""0"",""3178""
","
","
","""event"",""trial"",""time""
""fullscreenenter"",""0"",""3178""
","
","7347.799999999814","run_exp/static/audio/clip_17_q1.m4a","49","","","","","","","","","","","","","","","","","","","","","","",""
"","correct","74","443389","0.0-48.0-0.0","""event"",""trial"",""time""
""fullscreenenter"",""0"",""3178""
","
","
","""event"",""trial"",""time""
""fullscreenenter"",""0"",""3178""
","
","null","run_exp/static/audio/clip_18_correct.m4a","null","","","","","<div class='center'><p>That's correct!</p></div>","","","","","","","","","","","","","","","","","",""
"","html-keyboard-response","75","445185","0.0-48.0-1.0","""event"",""trial"",""time""
""fullscreenenter"",""0"",""3178""
","
","
","""event"",""trial"",""time""
""fullscreenenter"",""0"",""3178""
","
","1794.8999999999069","<div class='center'><p>That's correct!</p><p><b>[Press the space bar to continue]</b></p></div>","32","","","","","","","","","","","","","","","","","","","","","","",""
"","audio-keyboard-response","76","452898","0.0-48.0-2.0","""event"",""trial"",""time""
""fullscreenenter"",""0"",""3178""
","
","
","""event"",""trial"",""time""
""fullscreenenter"",""0"",""3178""
","
","7682.399999999907","run_exp/static/audio/clip_20_q2.m4a","50","","","","","","","","","","","","","","","","","","","","","","",""
"","correct","77","455288","0.0-49.0-0.0","""event"",""trial"",""time""
""fullscreenenter"",""0"",""3178""
","
","
","""event"",""trial"",""time""
""fullscreenenter"",""0"",""3178""
","
","null","run_exp/static/audio/clip_18_correct.m4a","null","","","","","<div class='center'><p>That's correct!</p></div>","","","","","","","","","","","","","","","","","",""
"","html-keyboard-response","78","456031","0.0-49.0-1.0","""event"",""trial"",""time""
""fullscreenenter"",""0"",""3178""
","
","
","""event"",""trial"",""time""
""fullscreenenter"",""0"",""3178""
","
","742.5","<div class='center'><p>That's correct!</p><p><b>[Press the space bar to continue]</b></p></div>","32","","","","","","","","","","","","","","","","","","","","","","",""
"","audio-keyboard-response","79","462522","0.0-49.0-2.0","""event"",""trial"",""time""
""fullscreenenter"",""0"",""3178""
","
","
","""event"",""trial"",""time""
""fullscreenenter"",""0"",""3178""
","
","6486.700000000186","run_exp/static/audio/clip_22_q3.m4a","50","","","","","","","","","","","","","","","","","","","","","","",""
"","correct","80","464928","0.0-50.0-0.0","""event"",""trial"",""time""
""fullscreenenter"",""0"",""3178""
","
","
","""event"",""trial"",""time""
""fullscreenenter"",""0"",""3178""
","
","null","run_exp/static/audio/clip_18_correct.m4a","null","","","","","<div class='center'><p>That's correct!</p></div>","","","","","","","","","","","","","","","","","",""
"","html-keyboard-response","81","466003","0.0-50.0-1.0","""event"",""trial"",""time""
""fullscreenenter"",""0"",""3178""
","
","
","""event"",""trial"",""time""
""fullscreenenter"",""0"",""3178""
","
","1073.3000000002794","<div class='center'><p>That's correct!</p><p><b>[Press the space bar to continue]</b></p></div>","32","","","","","","","","","","","","","","","","","","","","","","",""
"","audio-keyboard-response","82","473282","0.0-50.0-2.0","""event"",""trial"",""time""
""fullscreenenter"",""0"",""3178""
","
","
","""event"",""trial"",""time""
""fullscreenenter"",""0"",""3178""
","
","7272.700000000186","run_exp/static/audio/clip_24_q4.m4a","49","","","","","","","","","","","","","","","","","","","","","","",""
"","correct","83","475748","0.0-51.0-0.0","""event"",""trial"",""time""
""fullscreenenter"",""0"",""3178""
","
","
","""event"",""trial"",""time""
""fullscreenenter"",""0"",""3178""
","
","null","run_exp/static/audio/clip_18_correct.m4a","null","","","","","<div class='center'><p>That's correct!</p></div>","","","","","","","","","","","","","","","","","",""
"","html-keyboard-response","84","476560","0.0-51.0-1.0","""event"",""trial"",""time""
""fullscreenenter"",""0"",""3178""
","
","
","""event"",""trial"",""time""
""fullscreenenter"",""0"",""3178""
","
","809.6000000000931","<div class='center'><p>That's correct!</p><p><b>[Press the space bar to continue]</b></p></div>","32","","","","","","","","","","","","","","","","","","","","","","",""
"","q_all_corr","85","485109","0.0-52.0-0.0","""event"",""trial"",""time""
""fullscreenenter"",""0"",""3178""
","
","
","""event"",""trial"",""time""
""fullscreenenter"",""0"",""3178""
","
","null","run_exp/static/audio/clip_27_quiz_all_correct.m4a","null","","","","","<div class='center'><p>Good job! You’re now ready to move on to the real game! Remember this game will be difficult but don't get discouraged and try your best!</p></div>","","","","","","","","","","","","","","","","","",""
"","html-keyboard-response","86","485750","0.0-52.0-1.0","""event"",""trial"",""time""
""fullscreenenter"",""0"",""3178""
","
","
","""event"",""trial"",""time""
""fullscreenenter"",""0"",""3178""
","
","624.2000000001863","<div class='center'><p>Good job! You’re now ready to move on to the real game! Remember this game will be difficult but don't get discouraged and try your best!</p><p><b>[Press the space bar to continue]</b></p></div>","32","","","","","","","","","","","","","","","","","","","","","","",""
"","do_welcome","87","489777","0.0-53.0-0.0","""event"",""trial"",""time""
""fullscreenenter"",""0"",""3178""
","
","
","""event"",""trial"",""time""
""fullscreenenter"",""0"",""3178""
","
","null","","","","","","","","null","","","","","","","","","","","","","","","","",""
"","do_trial","88","496867","0.0-54.0-0.0","""event"",""trial"",""time""
""fullscreenenter"",""0"",""3178""
","
","
","""event"",""trial"",""time""
""fullscreenenter"",""0"",""3178""
","
","2501.100000000093","","","","","","","","49","0,1,0","0","countryside","0","probe-72","0.6","0.3","0.1","0","","","","","","","",""
"","html-keyboard-response","89","497887","0.0-54.0-1.0","""event"",""trial"",""time""
""fullscreenenter"",""0"",""3178""
","
","
","""event"",""trial"",""time""
""fullscreenenter"",""0"",""3178""
","
","null","<p></p>","null","","","","","","","","","","","","","","","","","","","","","","",""
"","do_trial","90","503540","0.0-55.0-0.0","""event"",""trial"",""time""
""fullscreenenter"",""0"",""3178""
","
","
","""event"",""trial"",""time""
""fullscreenenter"",""0"",""3178""
","
","1068.7000000001863","","","","","","","","50","1,1,0","0","countryside","1","probe-157","0.55556208254162","0.35293949609348507","0.2764550419883366","1","","","","","","","",""
"","html-keyboard-response","91","504546","0.0-55.0-1.0","""event"",""trial"",""time""
""fullscreenenter"",""0"",""3178""
","
","
","""event"",""trial"",""time""
""fullscreenenter"",""0"",""3178""
","
","null","<p></p>","null","","","","","","","","","","","","","","","","","","","","","","",""
"","do_trial","92","509782","0.0-56.0-0.0","""event"",""trial"",""time""
""fullscreenenter"",""0"",""3178""
","
","
","""event"",""trial"",""time""
""fullscreenenter"",""0"",""3178""
","
","649.5","","","","","","","","51","0,1,0","0","countryside","2","probe-145","0.5126624404626005","0.20820304726134617","0.11883477148831731","0","","","","","","","",""
"","html-keyboard-response","93","510791","0.0-56.0-1.0","""event"",""trial"",""time""
""fullscreenenter"",""0"",""3178""
","
","
","""event"",""trial"",""time""
""fullscreenenter"",""0"",""3178""
","
","null","<p></p>","null","","","","","","","","","","","","","","","","","","","","","","",""
"","do_trial","94","515680","0.0-57.0-0.0","""event"",""trial"",""time""
""fullscreenenter"",""0"",""3178""
","
","
","""event"",""trial"",""time""
""fullscreenenter"",""0"",""3178""
","
","309","","","","","","","","50","0,1,0","0","countryside","3","probe-10","0.5647435768676435","0.3043384125173011","0.11892494061603229","1","","","","","","","",""
"","html-keyboard-response","95","516695","0.0-57.0-1.0","""event"",""trial"",""time""
""fullscreenenter"",""0"",""3178""
","
","
","""event"",""trial"",""time""
""fullscreenenter"",""0"",""3178""
","
","null","<p></p>","null","","","","","","","","","","","","","","","","","","","","","","",""
"","do_trial","96","522473","0.0-58.0-0.0","""event"",""trial"",""time""
""fullscreenenter"",""0"",""3178""
","
","
","""event"",""trial"",""time""
""fullscreenenter"",""0"",""3178""
","
","1194.1000000000931","","","","","","","","51","1,0,0","0","countryside","4","probe-230","0.46032589763915077","0.22103021947168103","0.07637199839079604","0","","","","","","","",""
"","html-keyboard-response","97","523490","0.0-58.0-1.0","""event"",""trial"",""time""
""fullscreenenter"",""0"",""3178""
","
","
","""event"",""trial"",""time""
""fullscreenenter"",""0"",""3178""
","
","null","<p></p>","null","","","","","","","","","","","","","","","","","","","","","","",""
"","do_trial","98","528378","0.0-59.0-0.0","""event"",""trial"",""time""
""fullscreenenter"",""0"",""3178""
","
","
","""event"",""trial"",""time""
""fullscreenenter"",""0"",""3178""
","
","316.79999999981374","","","","","","","","50","0,1,0","0","countryside","5","probe-185","0.535956014429957","0.36506034568683327","0.19114656912236289","1","","","","","","","",""
"","html-keyboard-response","99","529386","0.0-59.0-1.0","""event"",""trial"",""time""
""fullscreenenter"",""0"",""3178""
","
","
","""event"",""trial"",""time""
""fullscreenenter"",""0"",""3178""
","
","null","<p></p>","null","","","","","","","","","","","","","","","","","","","","","","",""
"","do_trial","100","534386","0.0-60.0-0.0","""event"",""trial"",""time""
""fullscreenenter"",""0"",""3178""
","
","
","""event"",""trial"",""time""
""fullscreenenter"",""0"",""3178""
","
","422.60000000009313","","","","","","","","50","1,0,0","0","countryside","6","probe-31","0.6129438479725655","0.4137637968580144","0.10885225844369018","0","","","","","","","",""
"","html-keyboard-response","101","535392","0.0-60.0-1.0","""event"",""trial"",""time""
""fullscreenenter"",""0"",""3178""
","
","
","""event"",""trial"",""time""
""fullscreenenter"",""0"",""3178""
","
","null","<p></p>","null","","","","","","","","","","","","","","","","","","","","","","",""
"","do_trial","102","541518","0.0-61.0-0.0","""event"",""trial"",""time""
""fullscreenenter"",""0"",""3178""
","
","
","""event"",""trial"",""time""
""fullscreenenter"",""0"",""3178""
","
","1561.2000000001863","","","","","","","","50","1,0,0","0","countryside","7","probe-149","0.6861997172623532","0.448487294399957","0.0650634115476625","0","","","","","","","",""
"","html-keyboard-response","103","542523","0.0-61.0-1.0","""event"",""trial"",""time""
""fullscreenenter"",""0"",""3178""
","
","
","""event"",""trial"",""time""
""fullscreenenter"",""0"",""3178""
","
","null","<p></p>","null","","","","","","","","","","","","","","","","","","","","","","",""
"","do_trial","104","547821","0.0-62.0-0.0","""event"",""trial"",""time""
""fullscreenenter"",""0"",""3178""
","
","
","""event"",""trial"",""time""
""fullscreenenter"",""0"",""3178""
","
","719","","","","","","","","49","1,0,0","0","countryside","8","probe-28","0.7949043086154647","0.4263835334225439","0.11893626340453539","1","","","","","","","",""
"","html-keyboard-response","105","548834","0.0-62.0-1.0","""event"",""trial"",""time""
""fullscreenenter"",""0"",""3178""
","
","
","""event"",""trial"",""time""
""fullscreenenter"",""0"",""3178""
","
","null","<p></p>","null","","","","","","","","","","","","","","","","","","","","","","",""
"","do_trial","106","553930","0.0-63.0-0.0","""event"",""trial"",""time""
""fullscreenenter"",""0"",""3178""
","
","
","""event"",""trial"",""time""
""fullscreenenter"",""0"",""3178""
","
","500.89999999990687","","","","","","","","49","0,1,0","0","countryside","9","probe-84","0.7441723203340892","0.32430595740354634","0.11743585073202516","0","","","","","","","",""
"","html-keyboard-response","107","554937","0.0-63.0-1.0","""event"",""trial"",""time""
""fullscreenenter"",""0"",""3178""
","
","
","""event"",""trial"",""time""
""fullscreenenter"",""0"",""3178""
","
","null","<p></p>","null","","","","","","","","","","","","","","","","","","","","","","",""
"","do_trial","108","560213","0.0-64.0-0.0","""event"",""trial"",""time""
""fullscreenenter"",""0"",""3178""
","
","
","""event"",""trial"",""time""
""fullscreenenter"",""0"",""3178""
","
","698.7000000001863","","","","","","","","51","0,1,0","0","countryside","10","probe-175","0.5499554687646493","0.4339933202319319","0.12805244374390176","0","","","","","","","",""
"","html-keyboard-response","109","561219","0.0-64.0-1.0","""event"",""trial"",""time""
""fullscreenenter"",""0"",""3178""
","
","
","""event"",""trial"",""time""
""fullscreenenter"",""0"",""3178""
","
","null","<p></p>","null","","","","","","","","","","","","","","","","","","","","","","",""
"","do_trial","110","566111","0.0-65.0-0.0","""event"",""trial"",""time""
""fullscreenenter"",""0"",""3178""
","
","
","""event"",""trial"",""time""
""fullscreenenter"",""0"",""3178""
","
","314.79999999981374","","","","","","","","50","0,0,0","0","countryside","11","probe-139","0.524822304454819","0.3275096383135159","0.16945726567321293","0","","","","","","","",""
"","html-keyboard-response","111","567116","0.0-65.0-1.0","""event"",""trial"",""time""
""fullscreenenter"",""0"",""3178""
","
","
","""event"",""trial"",""time""
""fullscreenenter"",""0"",""3178""
","
","null","<p></p>","null","","","","","","","","","","","","","","","","","","","","","","",""
"","do_trial","112","572047","0.0-66.0-0.0","""event"",""trial"",""time""
""fullscreenenter"",""0"",""3178""
","
","
","""event"",""trial"",""time""
""fullscreenenter"",""0"",""3178""
","
","361.29999999981374","","","","","","","","49","0,1,0","0","countryside","12","probe-70","0.5882772485205966","0.2937518288965583","0.18450953277867752","0","","","","","","","",""
"","html-keyboard-response","113","573052","0.0-66.0-1.0","""event"",""trial"",""time""
""fullscreenenter"",""0"",""3178""
","
","
","""event"",""trial"",""time""
""fullscreenenter"",""0"",""3178""
","
","null","<p></p>","null","","","","","","","","","","","","","","","","","","","","","","",""
"","do_trial","114","578393","0.0-67.0-0.0","""event"",""trial"",""time""
""fullscreenenter"",""0"",""3178""
","
","
","""event"",""trial"",""time""
""fullscreenenter"",""0"",""3178""
","
","764.7999999998137","","","","","","","","51","1,0,0","0","countryside","13","probe-45","0.5687437557334948","0.32066870392178737","0.08665025507011605","0","","","","","","","",""
"","html-keyboard-response","115","579405","0.0-67.0-1.0","""event"",""trial"",""time""
""fullscreenenter"",""0"",""3178""
","
","
","""event"",""trial"",""time""
""fullscreenenter"",""0"",""3178""
","
","null","<p></p>","null","","","","","","","","","","","","","","","","","","","","","","",""
"","do_trial","116","584520","0.0-68.0-0.0","""event"",""trial"",""time""
""fullscreenenter"",""0"",""3178""
","
","
","""event"",""trial"",""time""
""fullscreenenter"",""0"",""3178""
","
","545.7000000001863","","","","","","","","51","0,1,0","0","countryside","14","probe-147","0.6154709058594606","0.3696354213765708","0.1394873012612369","0","","","","","","","",""
"","html-keyboard-response","117","585526","0.0-68.0-1.0","""event"",""trial"",""time""
""fullscreenenter"",""0"",""3178""
","
","
","""event"",""trial"",""time""
""fullscreenenter"",""0"",""3178""
","
","null","<p></p>","null","","","","","","","","","","","","","","","","","","","","","","",""
"","do_trial","118","590636","0.0-69.0-0.0","""event"",""trial"",""time""
""fullscreenenter"",""0"",""3178""
","
","
","""event"",""trial"",""time""
""fullscreenenter"",""0"",""3178""
","
","527.1999999997206","","","","","","","","50","1,1,0","0","countryside","15","probe-61","0.589750443286954","0.3936487996463874","0.12968801020808324","1","","","","","","","",""
"","html-keyboard-response","119","591642","0.0-69.0-1.0","""event"",""trial"",""time""
""fullscreenenter"",""0"",""3178""
","
","
","""event"",""trial"",""time""
""fullscreenenter"",""0"",""3178""
","
","null","<p></p>","null","","","","","","","","","","","","","","","","","","","","","","",""
"","do_trial","120","597069","0.0-70.0-0.0","""event"",""trial"",""time""
""fullscreenenter"",""0"",""3178""
","
","
","""event"",""trial"",""time""
""fullscreenenter"",""0"",""3178""
","
","850.8999999999069","","","","","","","","50","0,1,0","0","countryside","16","probe-189","0.5395575315339403","0.27072292643302104","0.12257638083906418","1","","","","","","","",""
"","html-keyboard-response","121","598075","0.0-70.0-1.0","""event"",""trial"",""time""
""fullscreenenter"",""0"",""3178""
","
","
","""event"",""trial"",""time""
""fullscreenenter"",""0"",""3178""
","
","null","<p></p>","null","","","","","","","","","","","","","","","","","","","","","","",""
"","do_trial","122","603334","0.0-71.0-0.0","""event"",""trial"",""time""
""fullscreenenter"",""0"",""3178""
","
","
","""event"",""trial"",""time""
""fullscreenenter"",""0"",""3178""
","
","684.7999999998137","","","","","","","","50","1,0,0","0","countryside","17","probe-117","0.5779682596624304","0.2585140389454036","0.1494884433917238","0","","","","","","","",""
"","html-keyboard-response","123","604340","0.0-71.0-1.0","""event"",""trial"",""time""
""fullscreenenter"",""0"",""3178""
","
","
","""event"",""trial"",""time""
""fullscreenenter"",""0"",""3178""
","
","null","<p></p>","null","","","","","","","","","","","","","","","","","","","","","","",""
"","do_trial","124","609492","0.0-72.0-0.0","""event"",""trial"",""time""
""fullscreenenter"",""0"",""3178""
","
","
","""event"",""trial"",""time""
""fullscreenenter"",""0"",""3178""
","
","574.5","","","","","","","","49","1,0,0","0","countryside","18","probe-101","0.5800748183677741","0.20147593542176484","0.07059083338417863","1","","","","","","","",""
"","html-keyboard-response","125","610503","0.0-72.0-1.0","""event"",""trial"",""time""
""fullscreenenter"",""0"",""3178""
","
","
","""event"",""trial"",""time""
""fullscreenenter"",""0"",""3178""
","
","null","<p></p>","null","","","","","","","","","","","","","","","","","","","","","","",""
"","do_trial","126","615512","0.0-73.0-0.0","""event"",""trial"",""time""
""fullscreenenter"",""0"",""3178""
","
","
","""event"",""trial"",""time""
""fullscreenenter"",""0"",""3178""
","
","427.70000000018626","","","","","","","","50","0,0,0","0","countryside","19","probe-52","0.5775634481375839","0.22351604671239678","0.1406582941287531","0","","","","","","","",""
"","html-keyboard-response","127","616518","0.0-73.0-1.0","""event"",""trial"",""time""
""fullscreenenter"",""0"",""3178""
","
","
","""event"",""trial"",""time""
""fullscreenenter"",""0"",""3178""
","
","null","<p></p>","null","","","","","","","","","","","","","","","","","","","","","","",""
"","do_trial","128","621536","0.0-74.0-0.0","""event"",""trial"",""time""
""fullscreenenter"",""0"",""3178""
","
","
","""event"",""trial"",""time""
""fullscreenenter"",""0"",""3178""
","
","445.20000000018626","","","","","","","","49","1,0,0","0","countryside","20","probe-180","0.5848185541730783","0.1423567026837843","0.16627293345085645","1","","","","","","","",""
"","html-keyboard-response","129","622548","0.0-74.0-1.0","""event"",""trial"",""time""
""fullscreenenter"",""0"",""3178""
","
","
","""event"",""trial"",""time""
""fullscreenenter"",""0"",""3178""
","
","null","<p></p>","null","","","","","","","","","","","","","","","","","","","","","","",""
"","do_trial","130","627322","0.0-75.0-0.0","""event"",""trial"",""time""
""fullscreenenter"",""0"",""3178""
","
","
","""event"",""trial"",""time""
""fullscreenenter"",""0"",""3178""
","
","216.60000000009313","","","","","","","","49","1,0,0","0","countryside","21","probe-48","0.6210289348961139","0.3373475923388458","0.19815928288487708","1","","","","","","","",""
"","html-keyboard-response","131","628329","0.0-75.0-1.0","""event"",""trial"",""time""
""fullscreenenter"",""0"",""3178""
","
","
","""event"",""trial"",""time""
""fullscreenenter"",""0"",""3178""
","
","null","<p></p>","null","","","","","","","","","","","","","","","","","","","","","","",""
"","do_trial","132","633387","0.0-76.0-0.0","""event"",""trial"",""time""
""fullscreenenter"",""0"",""3178""
","
","
","""event"",""trial"",""time""
""fullscreenenter"",""0"",""3178""
","
","486.09999999962747","","","","","","","","49","1,0,1","0","countryside","22","probe-39","0.6161335802842411","0.21275184726636528","0.4115691897890574","1","","","","","","","",""
"","html-keyboard-response","133","634406","0.0-76.0-1.0","""event"",""trial"",""time""
""fullscreenenter"",""0"",""3178""
","
","
","""event"",""trial"",""time""
""fullscreenenter"",""0"",""3178""
","
","null","<p></p>","null","","","","","","","","","","","","","","","","","","","","","","",""
"","do_trial","134","639327","0.0-77.0-0.0","""event"",""trial"",""time""
""fullscreenenter"",""0"",""3178""
","
","
","""event"",""trial"",""time""
""fullscreenenter"",""0"",""3178""
","
","348","","","","","","","","49","1,1,0","0","countryside","23","probe-155","0.6177089812579444","0.27710519844751763","0.26531396900358994","1","","","","","","","",""
"","html-keyboard-response","135","640338","0.0-77.0-1.0","""event"",""trial"",""time""
""fullscreenenter"",""0"",""3178""
","
","
","""event"",""trial"",""time""
""fullscreenenter"",""0"",""3178""
","
","null","<p></p>","null","","","","","","","","","","","","","","","","","","","","","","",""
"","do_trial","136","645471","0.0-78.0-0.0","""event"",""trial"",""time""
""fullscreenenter"",""0"",""3178""
","
","
","""event"",""trial"",""time""
""fullscreenenter"",""0"",""3178""
","
","551.6000000000931","","","","","","","","49","0,0,0","0","countryside","24","probe-116","0.5789501895181511","0.30066509465665914","0.05643855449502153","0","","","","","","","",""
"","html-keyboard-response","137","646473","0.0-78.0-1.0","""event"",""trial"",""time""
""fullscreenenter"",""0"",""3178""
","
","
","""event"",""trial"",""time""
""fullscreenenter"",""0"",""3178""
","
","null","<p></p>","null","","","","","","","","","","","","","","","","","","","","","","",""
"","do_trial","138","651306","0.0-79.0-0.0","""event"",""trial"",""time""
""fullscreenenter"",""0"",""3178""
","
","
","""event"",""trial"",""time""
""fullscreenenter"",""0"",""3178""
","
","266.10000000009313","","","","","","","","50","0,0,1","0","countryside","25","probe-74","0.6378111595726693","0.397006803905554","0.2726397340852082","0","","","","","","","",""
"","html-keyboard-response","139","652314","0.0-79.0-1.0","""event"",""trial"",""time""
""fullscreenenter"",""0"",""3178""
","
","
","""event"",""trial"",""time""
""fullscreenenter"",""0"",""3178""
","
","null","<p></p>","null","","","","","","","","","","","","","","","","","","","","","","",""
"","do_trial","140","656936","0.0-80.0-0.0","""event"",""trial"",""time""
""fullscreenenter"",""0"",""3178""
","
","
","""event"",""trial"",""time""
""fullscreenenter"",""0"",""3178""
","
","46.700000000186265","","","","","","","","51","1,0,0","0","countryside","26","probe-19","0.5408998609106327","0.3580317564476333","0.1749324711028942","0","","","","","","","",""
"","html-keyboard-response","141","657946","0.0-80.0-1.0","""event"",""trial"",""time""
""fullscreenenter"",""0"",""3178""
","
","
","""event"",""trial"",""time""
""fullscreenenter"",""0"",""3178""
","
","null","<p></p>","null","","","","","","","","","","","","","","","","","","","","","","",""
"","do_trial","142","662796","0.0-81.0-0.0","""event"",""trial"",""time""
""fullscreenenter"",""0"",""3178""
","
","
","""event"",""trial"",""time""
""fullscreenenter"",""0"",""3178""
","
","274","","","","","","","","51","0,0,0","0","countryside","27","probe-22","0.6022297704063495","0.41004386384626246","0.21214255731638618","0","","","","","","","",""
"","html-keyboard-response","143","663835","0.0-81.0-1.0","""event"",""trial"",""time""
""fullscreenenter"",""0"",""3178""
","
","
","""event"",""trial"",""time""
""fullscreenenter"",""0"",""3178""
","
","null","<p></p>","null","","","","","","","","","","","","","","","","","","","","","","",""
"","do_trial","144","669521","0.0-82.0-0.0","""event"",""trial"",""time""
""fullscreenenter"",""0"",""3178""
","
","
","""event"",""trial"",""time""
""fullscreenenter"",""0"",""3178""
","
","1128.8000000002794","","","","","","","","50","0,0,0","0","countryside","28","probe-165","0.6977457876135083","0.294061513799532","0.2788860357317974","0","","","","","","","",""
"","html-keyboard-response","145","670535","0.0-82.0-1.0","""event"",""trial"",""time""
""fullscreenenter"",""0"",""3178""
","
","
","""event"",""trial"",""time""
""fullscreenenter"",""0"",""3178""
","
","null","<p></p>","null","","","","","","","","","","","","","","","","","","","","","","",""
"","do_trial","146","675585","0.0-83.0-0.0","""event"",""trial"",""time""
""fullscreenenter"",""0"",""3178""
","
","
","""event"",""trial"",""time""
""fullscreenenter"",""0"",""3178""
","
","476.6999999997206","","","","","","","","49","0,0,0","0","countryside","29","probe-29","0.5102337279249691","0.3377574154017393","0.28268213928100017","0","","","","","","","",""
"","html-keyboard-response","147","676598","0.0-83.0-1.0","""event"",""trial"",""time""
""fullscreenenter"",""0"",""3178""
","
","
","""event"",""trial"",""time""
""fullscreenenter"",""0"",""3178""
","
","null","<p></p>","null","","","","","","","","","","","","","","","","","","","","","","",""
"","do_bye","148","678144","0.0-84.0-0.0","""event"",""trial"",""time""
""fullscreenenter"",""0"",""3178""
","
","
","""event"",""trial"",""time""
""fullscreenenter"",""0"",""3178""
","
","null","","","","","","","","null","","","","","","","","","","","","","","","","",""
"","break","149","684217","0.0-84.0-1.0","""event"",""trial"",""time""
""fullscreenenter"",""0"",""3178""
","
","
","""event"",""trial"",""time""
""fullscreenenter"",""0"",""3178""
","
","6071.299999999814","<div class='center'><p>Time to take a quick break! You have 2 minutes to rest, but you can move on sooner if you'd like.</p><p> Press the <b>space bar</b> to continue.</p></div>","32","","","","","","","","","","","","","","","","","","","","","","",""
"","do_travel","150","693246","0.0-85.0-0.0","""event"",""trial"",""time""
""fullscreenenter"",""0"",""3178""
","
","
","""event"",""trial"",""time""
""fullscreenenter"",""0"",""3178""
","
","null","","","","","","","","null","","","","","","","","","","","","","","","","",""
"","do_welcome","151","697266","0.0-85.0-1.0","""event"",""trial"",""time""
""fullscreenenter"",""0"",""3178""
","
","
","""event"",""trial"",""time""
""fullscreenenter"",""0"",""3178""
","
","null","","","","","","","","null","","","","","","","","","","","","","","","","",""
"","do_trial","152","702876","0.0-86.0-0.0","""event"",""trial"",""time""
""fullscreenenter"",""0"",""3178""
","
","
","""event"",""trial"",""time""
""fullscreenenter"",""0"",""3178""
","
","1027.9000000003725","","","","","","","","49","1,0,0","1","city","30","probe-208","1","0.33705323852418867","0.3155563044751283","1","","","","","","","",""
"","html-keyboard-response","153","703881","0.0-86.0-1.0","""event"",""trial"",""time""
""fullscreenenter"",""0"",""3178""
","
","
","""event"",""trial"",""time""
""fullscreenenter"",""0"",""3178""
","
","null","<p></p>","null","","","","","","","","","","","","","","","","","","","","","","",""
"","do_trial","154","709672","0.0-87.0-0.0","""event"",""trial"",""time""
""fullscreenenter"",""0"",""3178""
","
","
","""event"",""trial"",""time""
""fullscreenenter"",""0"",""3178""
","
","1208","","","","","","","","49","1,1,0","1","city","31","probe-209","1","0.4685852343654036","0.1292213488353702","1","","","","","","","",""
"","html-keyboard-response","155","710678","0.0-87.0-1.0","""event"",""trial"",""time""
""fullscreenenter"",""0"",""3178""
","
","
","""event"",""trial"",""time""
""fullscreenenter"",""0"",""3178""
","
","null","<p></p>","null","","","","","","","","","","","","","","","","","","","","","","",""
"","do_trial","156","715571","0.0-88.0-0.0","""event"",""trial"",""time""
""fullscreenenter"",""0"",""3178""
","
","
","""event"",""trial"",""time""
""fullscreenenter"",""0"",""3178""
","
","322.29999999981374","","","","","","","","50","1,0,0","1","city","32","probe-153","1","0.5101587325537948","0.13051592047409766","0","","","","","","","",""
"","html-keyboard-response","157","716577","0.0-88.0-1.0","""event"",""trial"",""time""
""fullscreenenter"",""0"",""3178""
","
","
","""event"",""trial"",""time""
""fullscreenenter"",""0"",""3178""
","
","null","<p></p>","null","","","","","","","","","","","","","","","","","","","","","","",""
"","do_trial","158","721372","0.0-89.0-0.0","""event"",""trial"",""time""
""fullscreenenter"",""0"",""3178""
","
","
","""event"",""trial"",""time""
""fullscreenenter"",""0"",""3178""
","
","211.70000000018626","","","","","","","","51","1,0,0","1","city","33","probe-196","0.9215726791201183","0.45931253277444123","0.10304189704310142","0","","","","","","","",""
"","html-keyboard-response","159","722377","0.0-89.0-1.0","""event"",""trial"",""time""
""fullscreenenter"",""0"",""3178""
","
","
","""event"",""trial"",""time""
""fullscreenenter"",""0"",""3178""
","
","null","<p></p>","null","","","","","","","","","","","","","","","","","","","","","","",""
"","do_trial","160","727078","0.0-90.0-0.0","""event"",""trial"",""time""
""fullscreenenter"",""0"",""3178""
","
","
","""event"",""trial"",""time""
""fullscreenenter"",""0"",""3178""
","
","120","","","","","","","","49","1,0,0","1","city","34","probe-187","0.7885419804730436","0.3601916864522407","0.06678535676727335","1","","","","","","","",""
"","html-keyboard-response","161","728085","0.0-90.0-1.0","""event"",""trial"",""time""
""fullscreenenter"",""0"",""3178""
","
","
","""event"",""trial"",""time""
""fullscreenenter"",""0"",""3178""
","
","null","<p></p>","null","","","","","","","","","","","","","","","","","","","","","","",""
"","do_trial","162","733239","0.0-91.0-0.0","""event"",""trial"",""time""
""fullscreenenter"",""0"",""3178""
","
","
","""event"",""trial"",""time""
""fullscreenenter"",""0"",""3178""
","
","572.8999999999069","","","","","","","","49","1,0,0","1","city","35","probe-181","0.6699339158592015","0.23780980821955883","0.07167821597998848","1","","","","","","","",""
"","html-keyboard-response","163","734248","0.0-91.0-1.0","""event"",""trial"",""time""
""fullscreenenter"",""0"",""3178""
","
","
","""event"",""trial"",""time""
""fullscreenenter"",""0"",""3178""
","
","null","<p></p>","null","","","","","","","","","","","","","","","","","","","","","","",""
"","do_trial","164","739826","0.0-92.0-0.0","""event"",""trial"",""time""
""fullscreenenter"",""0"",""3178""
","
","
","""event"",""trial"",""time""
""fullscreenenter"",""0"",""3178""
","
","988.1000000000931","","","","","","","","49","1,1,0","1","city","36","probe-91","0.6102687083010353","0.2354594564656265","0.15061069296341556","1","","","","","","","",""
"","html-keyboard-response","165","740840","0.0-92.0-1.0","""event"",""trial"",""time""
""fullscreenenter"",""0"",""3178""
","
","
","""event"",""trial"",""time""
""fullscreenenter"",""0"",""3178""
","
","null","<p></p>","null","","","","","","","","","","","","","","","","","","","","","","",""
"","do_trial","166","745672","0.0-93.0-0.0","""event"",""trial"",""time""
""fullscreenenter"",""0"",""3178""
","
","
","""event"",""trial"",""time""
""fullscreenenter"",""0"",""3178""
","
","251.10000000009313","","","","","","","","49","1,0,0","1","city","37","probe-54","0.6915820869063609","0.3163541589156481","0.15674045158383956","1","","","","","","","",""
"","html-keyboard-response","167","746684","0.0-93.0-1.0","""event"",""trial"",""time""
""fullscreenenter"",""0"",""3178""
","
","
","""event"",""trial"",""time""
""fullscreenenter"",""0"",""3178""
","
","null","<p></p>","null","","","","","","","","","","","","","","","","","","","","","","",""
"","do_trial","168","751698","0.0-94.0-0.0","""event"",""trial"",""time""
""fullscreenenter"",""0"",""3178""
","
","
","""event"",""trial"",""time""
""fullscreenenter"",""0"",""3178""
","
","440.8000000002794","","","","","","","","49","0,1,0","1","city","38","probe-98","0.6466374779891554","0.46351475680196863","0.179780019746623","0","","","","","","","",""
"","html-keyboard-response","169","752710","0.0-94.0-1.0","""event"",""trial"",""time""
""fullscreenenter"",""0"",""3178""
","
","
","""event"",""trial"",""time""
""fullscreenenter"",""0"",""3178""
","
","null","<p></p>","null","","","","","","","","","","","","","","","","","","","","","","",""
"","do_trial","170","758627","0.0-95.0-0.0","""event"",""trial"",""time""
""fullscreenenter"",""0"",""3178""
","
","
","""event"",""trial"",""time""
""fullscreenenter"",""0"",""3178""
","
","1339.3999999999069","","","","","","","","49","1,0,0","1","city","39","probe-82","0.7058211857457858","0.2975978984583719","0.15817914058750798","1","","","","","","","",""
"","html-keyboard-response","171","759631","0.0-95.0-1.0","""event"",""trial"",""time""
""fullscreenenter"",""0"",""3178""
","
","
","""event"",""trial"",""time""
""fullscreenenter"",""0"",""3178""
","
","null","<p></p>","null","","","","","","","","","","","","","","","","","","","","","","",""
"","do_trial","172","764678","0.0-96.0-0.0","""event"",""trial"",""time""
""fullscreenenter"",""0"",""3178""
","
","
","""event"",""trial"",""time""
""fullscreenenter"",""0"",""3178""
","
","468.40000000037253","","","","","","","","50","1,0,0","1","city","40","probe-228","0.8018752948950412","0.29963053081138064","0.19847542365493948","0","","","","","","","",""
"","html-keyboard-response","173","765682","0.0-96.0-1.0","""event"",""trial"",""time""
""fullscreenenter"",""0"",""3178""
","
","
","""event"",""trial"",""time""
""fullscreenenter"",""0"",""3178""
","
","null","<p></p>","null","","","","","","","","","","","","","","","","","","","","","","",""
"","do_trial","174","770557","0.0-97.0-0.0","""event"",""trial"",""time""
""fullscreenenter"",""0"",""3178""
","
","
","""event"",""trial"",""time""
""fullscreenenter"",""0"",""3178""
","
","299","","","","","","","","49","1,0,0","1","city","41","probe-207","0.6844311061901521","0.24192482884256458","0.16196819644720467","1","","","","","","","",""
"","html-keyboard-response","175","771573","0.0-97.0-1.0","""event"",""trial"",""time""
""fullscreenenter"",""0"",""3178""
","
","
","""event"",""trial"",""time""
""fullscreenenter"",""0"",""3178""
","
","null","<p></p>","null","","","","","","","","","","","","","","","","","","","","","","",""
"","do_trial","176","776373","0.0-98.0-0.0","""event"",""trial"",""time""
""fullscreenenter"",""0"",""3178""
","
","
","""event"",""trial"",""time""
""fullscreenenter"",""0"",""3178""
","
","222.20000000018626","","","","","","","","49","1,0,0","1","city","42","probe-217","0.4973299262844256","0.1981788007412954","0.37035351775027686","1","","","","","","","",""
"","html-keyboard-response","177","777388","0.0-98.0-1.0","""event"",""trial"",""time""
""fullscreenenter"",""0"",""3178""
","
","
","""event"",""trial"",""time""
""fullscreenenter"",""0"",""3178""
","
","null","<p></p>","null","","","","","","","","","","","","","","","","","","","","","","",""
"","do_trial","178","782712","0.0-99.0-0.0","""event"",""trial"",""time""
""fullscreenenter"",""0"",""3178""
","
","
","""event"",""trial"",""time""
""fullscreenenter"",""0"",""3178""
","
","731.2999999998137","","","","","","","","49","1,0,0","1","city","43","probe-104","0.5099078264454631","0.08821141697332623","0.5053025502767887","1","","","","","","","",""
"","html-keyboard-response","179","783723","0.0-99.0-1.0","""event"",""trial"",""time""
""fullscreenenter"",""0"",""3178""
","
","
","""event"",""trial"",""time""
""fullscreenenter"",""0"",""3178""
","
","null","<p></p>","null","","","","","","","","","","","","","","","","","","","","","","",""
"","do_trial","180","788636","0.0-100.0-0.0","""event"",""trial"",""time""
""fullscreenenter"",""0"",""3178""
","
","
","""event"",""trial"",""time""
""fullscreenenter"",""0"",""3178""
","
","334.09999999962747","","","","","","","","49","1,0,1","1","city","44","probe-13","0.38617372699939573","0.1429239719661226","0.5043022490546571","1","","","","","","","",""
"","html-keyboard-response","181","789651","0.0-100.0-1.0","""event"",""trial"",""time""
""fullscreenenter"",""0"",""3178""
","
","
","""event"",""trial"",""time""
""fullscreenenter"",""0"",""3178""
","
","null","<p></p>","null","","","","","","","","","","","","","","","","","","","","","","",""
"","do_trial","182","794634","0.0-101.0-0.0","""event"",""trial"",""time""
""fullscreenenter"",""0"",""3178""
","
","
","""event"",""trial"",""time""
""fullscreenenter"",""0"",""3178""
","
","412.3000000002794","","","","","","","","49","0,1,1","1","city","45","probe-159","0.2228388980358617","0.13020107136503364","0.5394597753879904","0","","","","","","","",""
"","html-keyboard-response","183","795649","0.0-101.0-1.0","""event"",""trial"",""time""
""fullscreenenter"",""0"",""3178""
","
","
","""event"",""trial"",""time""
""fullscreenenter"",""0"",""3178""
","
","null","<p></p>","null","","","","","","","","","","","","","","","","","","","","","","",""
"","do_trial","184","801070","0.0-102.0-0.0","""event"",""trial"",""time""
""fullscreenenter"",""0"",""3178""
","
","
","""event"",""trial"",""time""
""fullscreenenter"",""0"",""3178""
","
","855.4000000003725","","","","","","","","49","0,0,0","1","city","46","probe-148","0.25500524990102014","0.17950820543752102","0.564120610993733","0","","","","","","","",""
"","html-keyboard-response","185","802082","0.0-102.0-1.0","""event"",""trial"",""time""
""fullscreenenter"",""0"",""3178""
","
","
","""event"",""trial"",""time""
""fullscreenenter"",""0"",""3178""
","
","null","<p></p>","null","","","","","","","","","","","","","","","","","","","","","","",""
"","do_trial","186","807297","0.0-103.0-0.0","""event"",""trial"",""time""
""fullscreenenter"",""0"",""3178""
","
","
","""event"",""trial"",""time""
""fullscreenenter"",""0"",""3178""
","
","637","","","","","","","","51","1,0,0","1","city","47","probe-131","0.42101774575018264","0.10042480047530607","0.6258869151653987","0","","","","","","","",""
"","html-keyboard-response","187","808302","0.0-103.0-1.0","""event"",""trial"",""time""
""fullscreenenter"",""0"",""3178""
","
","
","""event"",""trial"",""time""
""fullscreenenter"",""0"",""3178""
","
","null","<p></p>","null","","","","","","","","","","","","","","","","","","","","","","",""
"","do_trial","188","813278","0.0-104.0-0.0","""event"",""trial"",""time""
""fullscreenenter"",""0"",""3178""
","
","
","""event"",""trial"",""time""
""fullscreenenter"",""0"",""3178""
","
","398.29999999981374","","","","","","","","50","1,0,0","1","city","48","probe-198","0.45387554649469714","0.06874646943245052","0.7597049592583239","0","","","","","","","",""
"","html-keyboard-response","189","814282","0.0-104.0-1.0","""event"",""trial"",""time""
""fullscreenenter"",""0"",""3178""
","
","
","""event"",""trial"",""time""
""fullscreenenter"",""0"",""3178""
","
","null","<p></p>","null","","","","","","","","","","","","","","","","","","","","","","",""
"","do_trial","190","819379","0.0-105.0-0.0","""event"",""trial"",""time""
""fullscreenenter"",""0"",""3178""
","
","
","""event"",""trial"",""time""
""fullscreenenter"",""0"",""3178""
","
","526.3000000002794","","","","","","","","49","1,0,1","1","city","49","probe-205","0.3915884018676972","0.061425774222173594","0.7350193227930198","1","","","","","","","",""
"","html-keyboard-response","191","820383","0.0-105.0-1.0","""event"",""trial"",""time""
""fullscreenenter"",""0"",""3178""
","
","
","""event"",""trial"",""time""
""fullscreenenter"",""0"",""3178""
","
","null","<p></p>","null","","","","","","","","","","","","","","","","","","","","","","",""
"","do_trial","192","825880","0.0-106.0-0.0","""event"",""trial"",""time""
""fullscreenenter"",""0"",""3178""
","
","
","""event"",""trial"",""time""
""fullscreenenter"",""0"",""3178""
","
","916.0999999996275","","","","","","","","49","0,0,0","1","city","50","probe-105","0.4319813076317744","0.07886876990490727","0.8180736001278682","0","","","","","","","",""
"","html-keyboard-response","193","826891","0.0-106.0-1.0","""event"",""trial"",""time""
""fullscreenenter"",""0"",""3178""
","
","
","""event"",""trial"",""time""
""fullscreenenter"",""0"",""3178""
","
","null","<p></p>","null","","","","","","","","","","","","","","","","","","","","","","",""
"","do_trial","194","831926","0.0-107.0-0.0","""event"",""trial"",""time""
""fullscreenenter"",""0"",""3178""
","
","
","""event"",""trial"",""time""
""fullscreenenter"",""0"",""3178""
","
","454.5","","","","","","","","49","0,0,1","1","city","51","probe-36","0.3171952862154317","0.14441138038107423","0.840726551741501","0","","","","","","","",""
"","html-keyboard-response","195","832931","0.0-107.0-1.0","""event"",""trial"",""time""
""fullscreenenter"",""0"",""3178""
","
","
","""event"",""trial"",""time""
""fullscreenenter"",""0"",""3178""
","
","null","<p></p>","null","","","","","","","","","","","","","","","","","","","","","","",""
"","do_trial","196","838529","0.0-108.0-0.0","""event"",""trial"",""time""
""fullscreenenter"",""0"",""3178""
","
","
","""event"",""trial"",""time""
""fullscreenenter"",""0"",""3178""
","
","1022.8999999999069","","","","","","","","50","1,1,1","1","city","52","probe-174","0.3580305247373735","0.12535452926201143","0.7265532757158885","1","","","","","","","",""
"","html-keyboard-response","197","839539","0.0-108.0-1.0","""event"",""trial"",""time""
""fullscreenenter"",""0"",""3178""
","
","
","""event"",""trial"",""time""
""fullscreenenter"",""0"",""3178""
","
","null","<p></p>","null","","","","","","","","","","","","","","","","","","","","","","",""
"","do_trial","198","845155","0.0-109.0-0.0","""event"",""trial"",""time""
""fullscreenenter"",""0"",""3178""
","
","
","""event"",""trial"",""time""
""fullscreenenter"",""0"",""3178""
","
","1035","","","","","","","","50","0,0,1","1","city","53","probe-46","0.34029274918446895","0.1459175413875793","0.7406975974506513","0","","","","","","","",""
"","html-keyboard-response","199","846159","0.0-109.0-1.0","""event"",""trial"",""time""
""fullscreenenter"",""0"",""3178""
","
","
","""event"",""trial"",""time""
""fullscreenenter"",""0"",""3178""
","
","null","<p></p>","null","","","","","","","","","","","","","","","","","","","","","","",""
"","do_trial","200","850740","0.0-110.0-0.0","""event"",""trial"",""time""
""fullscreenenter"",""0"",""3178""
","
","
","""event"",""trial"",""time""
""fullscreenenter"",""0"",""3178""
","
","0.2999999998137355","","","","","","","","49","1,0,1","1","city","54","probe-229","0.429451801458397","0.16453950992775046","0.6494629928551808","1","","","","","","","",""
"","html-keyboard-response","201","851752","0.0-110.0-1.0","""event"",""trial"",""time""
""fullscreenenter"",""0"",""3178""
","
","
","""event"",""trial"",""time""
""fullscreenenter"",""0"",""3178""
","
","null","<p></p>","null","","","","","","","","","","","","","","","","","","","","","","",""
"","do_trial","202","856369","0.0-111.0-0.0","""event"",""trial"",""time""
""fullscreenenter"",""0"",""3178""
","
","
","""event"",""trial"",""time""
""fullscreenenter"",""0"",""3178""
","
","39.89999999990687","","","","","","","","49","0,0,0","1","city","55","probe-68","0.4767323303313697","0.17048333023835832","0.5696384537597367","0","","","","","","","",""
"","html-keyboard-response","203","857371","0.0-111.0-1.0","""event"",""trial"",""time""
""fullscreenenter"",""0"",""3178""
","
","
","""event"",""trial"",""time""
""fullscreenenter"",""0"",""3178""
","
","null","<p></p>","null","","","","","","","","","","","","","","","","","","","","","","",""
"","do_trial","204","862605","0.0-112.0-0.0","""event"",""trial"",""time""
""fullscreenenter"",""0"",""3178""
","
","
","""event"",""trial"",""time""
""fullscreenenter"",""0"",""3178""
","
","659.7999999998137","","","","","","","","50","0,0,0","1","city","56","probe-26","0.3397383055876354","0.24074495730251735","0.518373387857416","0","","","","","","","",""
"","html-keyboard-response","205","863617","0.0-112.0-1.0","""event"",""trial"",""time""
""fullscreenenter"",""0"",""3178""
","
","
","""event"",""trial"",""time""
""fullscreenenter"",""0"",""3178""
","
","null","<p></p>","null","","","","","","","","","","","","","","","","","","","","","","",""
"","do_trial","206","869369","0.0-113.0-0.0","""event"",""trial"",""time""
""fullscreenenter"",""0"",""3178""
","
","
","""event"",""trial"",""time""
""fullscreenenter"",""0"",""3178""
","
","1173.7000000001863","","","","","","","","49","0,0,0","1","city","57","probe-111","0.281262985409249","0.18670044341778","0.4506769059739322","0","","","","","","","",""
"","html-keyboard-response","207","870381","0.0-113.0-1.0","""event"",""trial"",""time""
""fullscreenenter"",""0"",""3178""
","
","
","""event"",""trial"",""time""
""fullscreenenter"",""0"",""3178""
","
","null","<p></p>","null","","","","","","","","","","","","","","","","","","","","","","",""
"","do_trial","208","875847","0.0-114.0-0.0","""event"",""trial"",""time""
""fullscreenenter"",""0"",""3178""
","
","
","""event"",""trial"",""time""
""fullscreenenter"",""0"",""3178""
","
","898.5999999996275","","","","","","","","49","0,0,1","1","city","58","probe-109","0.21021738664529668","0.14871594713381484","0.49812792795160477","0","","","","","","","",""
"","html-keyboard-response","209","876851","0.0-114.0-1.0","""event"",""trial"",""time""
""fullscreenenter"",""0"",""3178""
","
","
","""event"",""trial"",""time""
""fullscreenenter"",""0"",""3178""
","
","null","<p></p>","null","","","","","","","","","","","","","","","","","","","","","","",""
"","do_trial","210","882633","0.0-115.0-0.0","""event"",""trial"",""time""
""fullscreenenter"",""0"",""3178""
","
","
","""event"",""trial"",""time""
""fullscreenenter"",""0"",""3178""
","
","1222.7000000001863","","","","","","","","50","0,0,0","1","city","59","probe-93","0.30436447221513563","0.11996952033515138","0.5524146098399512","0","","","","","","","",""
"","html-keyboard-response","211","883646","0.0-115.0-1.0","""event"",""trial"",""time""
""fullscreenenter"",""0"",""3178""
","
","
","""event"",""trial"",""time""
""fullscreenenter"",""0"",""3178""
","
","null","<p></p>","null","","","","","","","","","","","","","","","","","","","","","","",""
"","do_trial","212","888487","0.0-116.0-0.0","""event"",""trial"",""time""
""fullscreenenter"",""0"",""3178""
","
","
","""event"",""trial"",""time""
""fullscreenenter"",""0"",""3178""
","
","264.5","","","","","","","","50","0,0,1","1","city","60","probe-192","0.3671664031954472","0.1248707414151268","0.6025729403487633","0","","","","","","","",""
"","html-keyboard-response","213","889492","0.0-116.0-1.0","""event"",""trial"",""time""
""fullscreenenter"",""0"",""3178""
","
","
","""event"",""trial"",""time""
""fullscreenenter"",""0"",""3178""
","
","null","<p></p>","null","","","","","","","","","","","","","","","","","","","","","","",""
"","do_trial","214","894149","0.0-117.0-0.0","""event"",""trial"",""time""
""fullscreenenter"",""0"",""3178""
","
","
","""event"",""trial"",""time""
""fullscreenenter"",""0"",""3178""
","
","89.60000000009313","","","","","","","","49","0,0,1","1","city","61","probe-199","0.2609858028033709","0.08756855740787199","0.6867170316830558","0","","","","","","","",""
"","html-keyboard-response","215","895157","0.0-117.0-1.0","""event"",""trial"",""time""
""fullscreenenter"",""0"",""3178""
","
","
","""event"",""trial"",""time""
""fullscreenenter"",""0"",""3178""
","
","null","<p></p>","null","","","","","","","","","","","","","","","","","","","","","","",""
"","do_trial","216","901241","0.0-118.0-0.0","""event"",""trial"",""time""
""fullscreenenter"",""0"",""3178""
","
","
","""event"",""trial"",""time""
""fullscreenenter"",""0"",""3178""
","
","null","","","","","","","","null","1,0,1","1","city","62","probe-64","0.2803824004046444","0.07597079920669461","0.5669290426361703","","","","","","","","",""
"","html-keyboard-response","217","902244","0.0-118.0-1.0","""event"",""trial"",""time""
""fullscreenenter"",""0"",""3178""
","
","
","""event"",""trial"",""time""
""fullscreenenter"",""0"",""3178""
","
","null","<p></p>","null","","","","","","","","","","","","","","","","","","","","","","",""
"","do_trial","218","907321","0.0-119.0-0.0","""event"",""trial"",""time""
""fullscreenenter"",""0"",""3178""
","
","
","""event"",""trial"",""time""
""fullscreenenter"",""0"",""3178""
","
","500.29999999981374","","","","","","","","49","0,0,1","1","city","63","probe-16","0.3287876703729944","0.10838617081755922","0.533108790992068","0","","","","","","","",""
"","html-keyboard-response","219","908325","0.0-119.0-1.0","""event"",""trial"",""time""
""fullscreenenter"",""0"",""3178""
","
","
","""event"",""trial"",""time""
""fullscreenenter"",""0"",""3178""
","
","null","<p></p>","null","","","","","","","","","","","","","","","","","","","","","","",""
"","do_trial","220","912938","0.0-120.0-0.0","""event"",""trial"",""time""
""fullscreenenter"",""0"",""3178""
","
","
","""event"",""trial"",""time""
""fullscreenenter"",""0"",""3178""
","
","37","","","","","","","","50","1,0,1","1","city","64","probe-97","0.30493101404854883","0.06675027864074663","0.5193557092344581","0","","","","","","","",""
"","html-keyboard-response","221","913952","0.0-120.0-1.0","""event"",""trial"",""time""
""fullscreenenter"",""0"",""3178""
","
","
","""event"",""trial"",""time""
""fullscreenenter"",""0"",""3178""
","
","null","<p></p>","null","","","","","","","","","","","","","","","","","","","","","","",""
"","do_trial","222","918530","0.0-121.0-0.0","""event"",""trial"",""time""
""fullscreenenter"",""0"",""3178""
","
","
","""event"",""trial"",""time""
""fullscreenenter"",""0"",""3178""
","
","0.3000000002793968","","","","","","","","50","0,0,0","1","city","65","probe-214","0.39422488423921437","0.07595646842592167","0.5660931827229344","0","","","","","","","",""
"","html-keyboard-response","223","919542","0.0-121.0-1.0","""event"",""trial"",""time""
""fullscreenenter"",""0"",""3178""
","
","
","""event"",""trial"",""time""
""fullscreenenter"",""0"",""3178""
","
","null","<p></p>","null","","","","","","","","","","","","","","","","","","","","","","",""
"","do_trial","224","924122","0.0-122.0-0.0","""event"",""trial"",""time""
""fullscreenenter"",""0"",""3178""
","
","
","""event"",""trial"",""time""
""fullscreenenter"",""0"",""3178""
","
","0.3000000002793968","","","","","","","","50","0,0,1","1","city","66","probe-121","0.4190300399312275","0.08004359459698503","0.6153940219013351","0","","","","","","","",""
"","html-keyboard-response","225","925125","0.0-122.0-1.0","""event"",""trial"",""time""
""fullscreenenter"",""0"",""3178""
","
","
","""event"",""trial"",""time""
""fullscreenenter"",""0"",""3178""
","
","null","<p></p>","null","","","","","","","","","","","","","","","","","","","","","","",""
"","do_trial","226","929713","0.0-123.0-0.0","""event"",""trial"",""time""
""fullscreenenter"",""0"",""3178""
","
","
","""event"",""trial"",""time""
""fullscreenenter"",""0"",""3178""
","
","0.3000000002793968","","","","","","","","49","0,0,0","1","city","67","probe-38","0.332157683575557","0.1171267377960455","0.5568488060211139","0","","","","","","","",""
"","html-keyboard-response","227","930717","0.0-123.0-1.0","""event"",""trial"",""time""
""fullscreenenter"",""0"",""3178""
","
","
","""event"",""trial"",""time""
""fullscreenenter"",""0"",""3178""
","
","null","<p></p>","null","","","","","","","","","","","","","","","","","","","","","","",""
"","do_trial","228","935335","0.0-124.0-0.0","""event"",""trial"",""time""
""fullscreenenter"",""0"",""3178""
","
","
","""event"",""trial"",""time""
""fullscreenenter"",""0"",""3178""
","
","46.89999999990687","","","","","","","","49","0,0,1","1","city","68","probe-32","0.2496956499194841","0.23121779693776334","0.5784010321835981","0","","","","","","","",""
"","html-keyboard-response","229","936354","0.0-124.0-1.0","""event"",""trial"",""time""
""fullscreenenter"",""0"",""3178""
","
","
","""event"",""trial"",""time""
""fullscreenenter"",""0"",""3178""
","
","null","<p></p>","null","","","","","","","","","","","","","","","","","","","","","","",""
"","do_trial","230","942436","0.0-125.0-0.0","""event"",""trial"",""time""
""fullscreenenter"",""0"",""3178""
","
","
","""event"",""trial"",""time""
""fullscreenenter"",""0"",""3178""
","
","null","","","","","","","","null","1,1,0","1","city","69","probe-222","0.27260432965296","0.11800557799853048","0.6260673142203024","","","","","","","","",""
"","html-keyboard-response","231","943451","0.0-125.0-1.0","""event"",""trial"",""time""
""fullscreenenter"",""0"",""3178""
","
","
","""event"",""trial"",""time""
""fullscreenenter"",""0"",""3178""
","
","null","<p></p>","null","","","","","","","","","","","","","","","","","","","","","","",""
"","do_bye","232","944964","0.0-126.0-0.0","""event"",""trial"",""time""
""fullscreenenter"",""0"",""3178""
","
","
","""event"",""trial"",""time""
""fullscreenenter"",""0"",""3178""
","
","null","","","","","","","","null","","","","","","","","","","","","","","","","",""
"","break","233","988490","0.0-126.0-1.0","""event"",""trial"",""time""
""fullscreenenter"",""0"",""3178""
","
","
","""event"",""trial"",""time""
""fullscreenenter"",""0"",""3178""
","
","43523.89999999991","<div class='center'><p>Time to take a quick break! You have 2 minutes to rest, but you can move on sooner if you'd like.</p><p> Press the <b>space bar</b> to continue.</p></div>","32","","","","","","","","","","","","","","","","","","","","","","",""
"","do_travel","234","997509","0.0-127.0-0.0","""event"",""trial"",""time""
""fullscreenenter"",""0"",""3178""
","
","
","""event"",""trial"",""time""
""fullscreenenter"",""0"",""3178""
","
","null","","","","","","","","null","","","","","","","","","","","","","","","","",""
"","do_welcome","235","1001527","0.0-127.0-1.0","""event"",""trial"",""time""
""fullscreenenter"",""0"",""3178""
","
","
","""event"",""trial"",""time""
""fullscreenenter"",""0"",""3178""
","
","null","","","","","","","","null","","","","","","","","","","","","","","","","",""
"","do_trial","236","1007398","0.0-128.0-0.0","""event"",""trial"",""time""
""fullscreenenter"",""0"",""3178""
","
","
","""event"",""trial"",""time""
""fullscreenenter"",""0"",""3178""
","
","1262.8000000002794","","","","","","","","49","0,0,1","2","forest","70","probe-21","0.12065552162910653","0.06003086691712262","1","0","","","","","","","",""
"","html-keyboard-response","237","1008419","0.0-128.0-1.0","""event"",""trial"",""time""
""fullscreenenter"",""0"",""3178""
","
","
","""event"",""trial"",""time""
""fullscreenenter"",""0"",""3178""
","
","null","<p></p>","null","","","","","","","","","","","","","","","","","","","","","","",""
"","do_trial","238","1013224","0.0-129.0-0.0","""event"",""trial"",""time""
""fullscreenenter"",""0"",""3178""
","
","
","""event"",""trial"",""time""
""fullscreenenter"",""0"",""3178""
","
","220.3000000002794","","","","","","","","49","0,0,1","2","forest","71","probe-75","0.28984907965006357","0.22240017378694169","1","0","","","","","","","",""
"","html-keyboard-response","239","1014231","0.0-129.0-1.0","""event"",""trial"",""time""
""fullscreenenter"",""0"",""3178""
","
","
","""event"",""trial"",""time""
""fullscreenenter"",""0"",""3178""
","
","null","<p></p>","null","","","","","","","","","","","","","","","","","","","","","","",""
"","do_trial","240","1018825","0.0-130.0-0.0","""event"",""trial"",""time""
""fullscreenenter"",""0"",""3178""
","
","
","""event"",""trial"",""time""
""fullscreenenter"",""0"",""3178""
","
","24.899999999906868","","","","","","","","50","1,0,1","2","forest","72","probe-94","0.47091420001314616","0.13684960777123148","0.9206300259390722","0","","","","","","","",""
"","html-keyboard-response","241","1019832","0.0-130.0-1.0","""event"",""trial"",""time""
""fullscreenenter"",""0"",""3178""
","
","
","""event"",""trial"",""time""
""fullscreenenter"",""0"",""3178""
","
","null","<p></p>","null","","","","","","","","","","","","","","","","","","","","","","",""
"","do_trial","242","1024477","0.0-131.0-0.0","""event"",""trial"",""time""
""fullscreenenter"",""0"",""3178""
","
","
","""event"",""trial"",""time""
""fullscreenenter"",""0"",""3178""
","
","0.20000000018626451","","","","","","","","50","0,0,1","2","forest","73","probe-95","0.3158340923771207","0.11657423752728542","0.8792036753291405","0","","","","","","","",""
"","html-keyboard-response","243","1025482","0.0-131.0-1.0","""event"",""trial"",""time""
""fullscreenenter"",""0"",""3178""
","
","
","""event"",""trial"",""time""
""fullscreenenter"",""0"",""3178""
","
","null","<p></p>","null","","","","","","","","","","","","","","","","","","","","","","",""
"","do_trial","244","1030056","0.0-132.0-0.0","""event"",""trial"",""time""
""fullscreenenter"",""0"",""3178""
","
","
","""event"",""trial"",""time""
""fullscreenenter"",""0"",""3178""
","
","0.3000000002793968","","","","","","","","51","0,0,1","2","forest","74","probe-09","0.3147925206083378","0.11791821897581936","0.7836667063250178","1","","","","","","","",""
"","html-keyboard-response","245","1031060","0.0-132.0-1.0","""event"",""trial"",""time""
""fullscreenenter"",""0"",""3178""
","
","
","""event"",""trial"",""time""
""fullscreenenter"",""0"",""3178""
","
","null","<p></p>","null","","","","","","","","","","","","","","","","","","","","","","",""
"","do_trial","246","1035755","0.0-133.0-0.0","""event"",""trial"",""time""
""fullscreenenter"",""0"",""3178""
","
","
","""event"",""trial"",""time""
""fullscreenenter"",""0"",""3178""
","
","119.3000000002794","","","","","","","","51","0,0,1","2","forest","75","probe-112","0.24629867104289982","0.13789937012209158","0.608064236963352","1","","","","","","","",""
"","html-keyboard-response","247","1036759","0.0-133.0-1.0","""event"",""trial"",""time""
""fullscreenenter"",""0"",""3178""
","
","
","""event"",""trial"",""time""
""fullscreenenter"",""0"",""3178""
","
","null","<p></p>","null","","","","","","","","","","","","","","","","","","","","","","",""
"","do_trial","248","1041339","0.0-134.0-0.0","""event"",""trial"",""time""
""fullscreenenter"",""0"",""3178""
","
","
","""event"",""trial"",""time""
""fullscreenenter"",""0"",""3178""
","
","0.3000000002793968","","","","","","","","51","0,1,1","2","forest","76","probe-30","0.2975829217712641","0.27029529204006447","0.6156924872177966","1","","","","","","","",""
"","html-keyboard-response","249","1042343","0.0-134.0-1.0","""event"",""trial"",""time""
""fullscreenenter"",""0"",""3178""
","
","
","""event"",""trial"",""time""
""fullscreenenter"",""0"",""3178""
","
","null","<p></p>","null","","","","","","","","","","","","","","","","","","","","","","",""
"","do_trial","250","1046979","0.0-135.0-0.0","""event"",""trial"",""time""
""fullscreenenter"",""0"",""3178""
","
","
","""event"",""trial"",""time""
""fullscreenenter"",""0"",""3178""
","
","61.39999999990687","","","","","","","","51","0,1,1","2","forest","77","probe-150","0.13874849603727085","0.22175067897192666","0.6600199644495796","1","","","","","","","",""
"","html-keyboard-response","251","1047993","0.0-135.0-1.0","""event"",""trial"",""time""
""fullscreenenter"",""0"",""3178""
","
","
","""event"",""trial"",""time""
""fullscreenenter"",""0"",""3178""
","
","null","<p></p>","null","","","","","","","","","","","","","","","","","","","","","","",""
"","do_trial","252","1052660","0.0-136.0-0.0","""event"",""trial"",""time""
""fullscreenenter"",""0"",""3178""
","
","
","""event"",""trial"",""time""
""fullscreenenter"",""0"",""3178""
","
","88.6999999997206","","","","","","","","51","0,0,1","2","forest","78","probe-177","0.2163615394565083","0.22375442526068784","0.6770729516322301","1","","","","","","","",""
"","html-keyboard-response","253","1053663","0.0-136.0-1.0","""event"",""trial"",""time""
""fullscreenenter"",""0"",""3178""
","
","
","""event"",""trial"",""time""
""fullscreenenter"",""0"",""3178""
","
","null","<p></p>","null","","","","","","","","","","","","","","","","","","","","","","",""
"","do_trial","254","1058247","0.0-137.0-0.0","""event"",""trial"",""time""
""fullscreenenter"",""0"",""3178""
","
","
","""event"",""trial"",""time""
""fullscreenenter"",""0"",""3178""
","
","14.799999999813735","","","","","","","","51","0,0,1","2","forest","79","probe-71","0.3715053284712906","0.060932567310679246","0.7081777682176997","1","","","","","","","",""
"","html-keyboard-response","255","1059258","0.0-137.0-1.0","""event"",""trial"",""time""
""fullscreenenter"",""0"",""3178""
","
","
","""event"",""trial"",""time""
""fullscreenenter"",""0"",""3178""
","
","null","<p></p>","null","","","","","","","","","","","","","","","","","","","","","","",""
"","do_trial","256","1063859","0.0-138.0-0.0","""event"",""trial"",""time""
""fullscreenenter"",""0"",""3178""
","
","
","""event"",""trial"",""time""
""fullscreenenter"",""0"",""3178""
","
","20.40000000037253","","","","","","","","51","1,0,1","2","forest","80","probe-33","0.48389282371151054","0.09573938882461713","0.6077436289958918","1","","","","","","","",""
"","html-keyboard-response","257","1064861","0.0-138.0-1.0","""event"",""trial"",""time""
""fullscreenenter"",""0"",""3178""
","
","
","""event"",""trial"",""time""
""fullscreenenter"",""0"",""3178""
","
","null","<p></p>","null","","","","","","","","","","","","","","","","","","","","","","",""
"","do_trial","258","1069540","0.0-139.0-0.0","""event"",""trial"",""time""
""fullscreenenter"",""0"",""3178""
","
","
","""event"",""trial"",""time""
""fullscreenenter"",""0"",""3178""
","
","111","","","","","","","","51","0,0,0","2","forest","81","probe-67","0.6068426958411258","0.07114535028311748","0.5607640441089479","0","","","","","","","",""
"","html-keyboard-response","259","1070543","0.0-139.0-1.0","""event"",""trial"",""time""
""fullscreenenter"",""0"",""3178""
","
","
","""event"",""trial"",""time""
""fullscreenenter"",""0"",""3178""
","
","null","<p></p>","null","","","","","","","","","","","","","","","","","","","","","","",""
"","do_trial","260","1075119","0.0-140.0-0.0","""event"",""trial"",""time""
""fullscreenenter"",""0"",""3178""
","
","
","""event"",""trial"",""time""
""fullscreenenter"",""0"",""3178""
","
","0.2999999998137355","","","","","","","","49","0,0,0","2","forest","82","probe-88","0.39113479094369447","0.14455074741970694","0.30114706007437303","0","","","","","","","",""
"","html-keyboard-response","261","1076128","0.0-140.0-1.0","""event"",""trial"",""time""
""fullscreenenter"",""0"",""3178""
","
","
","""event"",""trial"",""time""
""fullscreenenter"",""0"",""3178""
","
