"success","trial_type","trial_index","time_elapsed","internal_node_id","interactions","blur_events","focus_events","fullscreenenter_events","fullscreenexit_events","rt","stimulus","key_press","subject_id","participant_id","age","gender","prompt","response","choice_outcomes","context_n","context_img_id","trial_n","probe_img_id","pR_red","pR_white","pR_black","outcome","contextArray_ind","validImageProbes","invalidImageProbes","pRew_Red","pRew_White","pRew_Black","availableForMemProbe","choice_blocks"
"true","fullscreen","0","5345","0.0-0.0","""event"",""trial"",""time""
""fullscreenenter"",""0"",""4360""
","
","
","""event"",""trial"",""time""
""fullscreenenter"",""0"",""4360""
","
","","","","","","","","","","","","","","","","","","","","","","","","","",""
"","pavlovia","1","5353","0.0-1.0","""event"",""trial"",""time""
""fullscreenenter"",""0"",""4360""
","
","
","""event"",""trial"",""time""
""fullscreenenter"",""0"",""4360""
","
","","","","","","","","","","","","","","","","","","","","","","","","","",""
"","instruc1","2","50533","0.0-2.0","""event"",""trial"",""time""
""fullscreenenter"",""0"",""4360""
","
","
","""event"",""trial"",""time""
""fullscreenenter"",""0"",""4360""
","
","null","run_exp/static/audio/clip_1_welcome.m4a","null","114","190","12","Male","<div class='center'><p>Welcome! This is the first part of the study. It will last ~30 minutes. In part 1 and part 2 of the study, you are the head captain of a pirate ship traveling around the world to different islands. You will play a few different games throughout these two parts. Here is an overview of them:</p><br><p>Part 1 (today)</p><p>1. Instructions, practice game, and quiz</p><p>2. Pick a pirate game on 6 different islands</p><br><p>Part 2 (tomorrow)</p><p>3. Pick a pirate game and memory game</p><p>4. Where did you see this ship? </p></div>","","","","","","","","","","","","","","","","","",""
"","html-keyboard-response","3","50586","0.0-3.0","""event"",""trial"",""time""
""fullscreenenter"",""0"",""4360""
","
","
","""event"",""trial"",""time""
""fullscreenenter"",""0"",""4360""
","
","48.200000000186265","<div class='center'><p>Welcome! This is the first part of the study. It will last ~30 minutes. In part 1 and part 2 of the study, you are the head captain of a pirate ship traveling around the world to different islands. You will play a few different games throughout these two parts. Here is an overview of them:</p><br><p>Part 1 (today)</p><p>1. Instructions, practice game, and quiz</p><p>2. Pick a pirate game on 6 different islands</p><br><p>Part 2 (tomorrow)</p><p>3. Pick a pirate game and memory game</p><p>4. Where did you see this ship? </p><p><b>[Press the space bar to continue]</b></p></div>","32","","","","","","","","","","","","","","","","","","","","","","",""
"","instruc2","4","56089","0.0-4.0","""event"",""trial"",""time""
""fullscreenenter"",""0"",""4360""
","
","
","""event"",""trial"",""time""
""fullscreenenter"",""0"",""4360""
","
","null","run_exp/static/audio/clip_2_different_places.m4a","null","","","","","<div class='center'><p>Today, you’ll visit these 6 islands on your journey. You'll be able to see these islands from your ship.</p><p><img src='run_exp/static/images/contexts/all_contexts.png' height='500'></p></div>","","","","","","","","","","","","","","","","","",""
"","html-keyboard-response","5","57000","0.0-5.0","""event"",""trial"",""time""
""fullscreenenter"",""0"",""4360""
","
","
","""event"",""trial"",""time""
""fullscreenenter"",""0"",""4360""
","
","907.1000000000931","<div class='center'><p>Today, you’ll visit these 6 islands on your journey. You'll be able to see these islands from your ship.</p><p><img src='run_exp/static/images/contexts/all_contexts.png' height='500'></p><p><b>[Press the space bar to continue]</b></p></div>","32","","","","","","","","","","","","","","","","","","","","","","",""
"","instruc3","6","66955","0.0-6.0","""event"",""trial"",""time""
""fullscreenenter"",""0"",""4360""
","
","
","""event"",""trial"",""time""
""fullscreenenter"",""0"",""4360""
","
","null","run_exp/static/audio/clip_3_goal_of_game_1.m4a","null","","","","","<div class='center'><p> The pirates on your ship will rob other ships as they leave the island.</p> These ships have just sold their goods to the islanders, so they will be filled with lots and lots of gold.</p><p><img src='run_exp/static/images/tutorial/ship_center.png' height='400'></p></div>","","","","","","","","","","","","","","","","","",""
"","html-keyboard-response","7","67046","0.0-7.0","""event"",""trial"",""time""
""fullscreenenter"",""0"",""4360""
","
","
","""event"",""trial"",""time""
""fullscreenenter"",""0"",""4360""
","
","86.5","<div class='center'><p> The pirates on your ship will rob other ships as they leave the island.</p> These ships have just sold their goods to the islanders, so they will be filled with lots and lots of gold.</p><p><img src='run_exp/static/images/tutorial/ship_center.png' height='400'></p><p><b>[Press the space bar to continue]</b></p></div>","32","","","","","","","","","","","","","","","","","","","","","","",""
"","instruc4","8","95268","0.0-8.0","""event"",""trial"",""time""
""fullscreenenter"",""0"",""4360""
","
","
","""event"",""trial"",""time""
""fullscreenenter"",""0"",""4360""
","
","null","run_exp/static/audio/clip_4_goal_of_game_2.m4a","null","","","","","<div class='center'><p>As the head captain, you do not have to rob any ships yourself. Another pirate will be doing the robbing for you. First, you will choose a pirate to rob the next ship.</p><p><img src='run_exp/static/images/tutorial/pirates_all_crop.png' height='200'></p><p>Then, you'll see if the pirate successfully robbed the ship of their gold. If they were successful, then you'll get a stack of gold coins like this:</p><p><img src='run_exp/static/images/tutorial/reward.png' height='150'></p><p> If they were <b>not</b> successful, then you'll get no gold coins, and you'll see a big red x like this: </p><p><img src='run_exp/static/images/tutorial/reward_no.png' height='150'></p><p> How much bonus money you make is based on how many gold coins you collect.</p><div>","","","","","","","","","","","","","","","","","",""
"","html-keyboard-response","9","95345","0.0-9.0","""event"",""trial"",""time""
""fullscreenenter"",""0"",""4360""
","
","
","""event"",""trial"",""time""
""fullscreenenter"",""0"",""4360""
","
","68.5","<div class='center'><p>As the head captain, you do not have to rob any ships yourself. Another pirate will be doing the robbing for you. First, you will choose a pirate to rob the next ship.</p><p><img src='run_exp/static/images/tutorial/pirates_all_crop.png' height='200'></p><p>Then, you'll see if the pirate successfully robbed the ship of their gold. If they were successful, then you'll get a stack of gold coins like this:</p><p><img src='run_exp/static/images/tutorial/reward.png' height='150'></p><p> If they were <b>not</b> successful, then you'll get no gold coins, and you'll see a big red x like this: </p><p><img src='run_exp/static/images/tutorial/reward_no.png' height='150'></p><p> How much bonus money you make is based on how many gold coins you collect.</p<p><b>[Press the space bar to continue]</b></p></div>","32","","","","","","","","","","","","","","","","","","","","","","",""
"","instruc5","10","115328","0.0-10.0","""event"",""trial"",""time""
""fullscreenenter"",""0"",""4360""
","
","
","""event"",""trial"",""time""
""fullscreenenter"",""0"",""4360""
","
","19978.399999999907","run_exp/static/audio/clip_5_probabilistic.m4a","49","","","","","<div class='center'><p>Even the most skilled pirate can not rob EVERY ship.</p><p> Some ships will have very strong protections against pirate attacks.</p><p> Blue beard, here, is very, very good at robbing ships, but he won't be successful every time he tries to rob one.</p><p> You can press the <b>‘1’</b> key on the keyboard to choose him.</p><p> Try choosing him 10 times to see how often he succeeds at robbing a ship. </p><p><img src='run_exp/static/images/tutorial/blue.png' height='500'></p></div>","","","","","","","","","","","","","","","","","",""
"","html-keyboard-response","11","116834","0.0-11.0","""event"",""trial"",""time""
""fullscreenenter"",""0"",""4360""
","
","
","""event"",""trial"",""time""
""fullscreenenter"",""0"",""4360""
","
","null","<div class='center'><p><img src='run_exp/static/images/tutorial/blue_win.png' height='500'></p></div>","null","","","","","","","","","","","","","","","","","","","","","","",""
"","html-keyboard-response","12","118832","0.0-12.0","""event"",""trial"",""time""
""fullscreenenter"",""0"",""4360""
","
","
","""event"",""trial"",""time""
""fullscreenenter"",""0"",""4360""
","
","1994.0999999996275","<div class='center'><img src='run_exp/static/images/tutorial/blue.png' height='500'></p></div>","49","","","","","","","","","","","","","","","","","","","","","","",""
"","html-keyboard-response","13","120334","0.0-13.0","""event"",""trial"",""time""
""fullscreenenter"",""0"",""4360""
","
","
","""event"",""trial"",""time""
""fullscreenenter"",""0"",""4360""
","
","null","<div class='center'><p><img src='run_exp/static/images/tutorial/blue_win.png' height='500'></p></div>","null","","","","","","","","","","","","","","","","","","","","","","",""
"","html-keyboard-response","14","122981","0.0-14.0","""event"",""trial"",""time""
""fullscreenenter"",""0"",""4360""
","
","
","""event"",""trial"",""time""
""fullscreenenter"",""0"",""4360""
","
","2642.899999999907","<div class='center'><img src='run_exp/static/images/tutorial/blue.png' height='500'></p></div>","49","","","","","","","","","","","","","","","","","","","","","","",""
"","html-keyboard-response","15","124486","0.0-15.0","""event"",""trial"",""time""
""fullscreenenter"",""0"",""4360""
","
","
","""event"",""trial"",""time""
""fullscreenenter"",""0"",""4360""
","
","null","<div class='center'><p><img src='run_exp/static/images/tutorial/blue_win.png' height='500'></p></div>","null","","","","","","","","","","","","","","","","","","","","","","",""
"","html-keyboard-response","16","125165","0.0-16.0","""event"",""trial"",""time""
""fullscreenenter"",""0"",""4360""
","
","
","""event"",""trial"",""time""
""fullscreenenter"",""0"",""4360""
","
","671.5","<div class='center'><img src='run_exp/static/images/tutorial/blue.png' height='500'></p></div>","49","","","","","","","","","","","","","","","","","","","","","","",""
"","html-keyboard-response","17","126670","0.0-17.0","""event"",""trial"",""time""
""fullscreenenter"",""0"",""4360""
","
","
","""event"",""trial"",""time""
""fullscreenenter"",""0"",""4360""
","
","null","<div class='center'><p><img src='run_exp/static/images/tutorial/blue_no_win.png' height='500'></p></div>","null","","","","","","","","","","","","","","","","","","","","","","",""
"","html-keyboard-response","18","127234","0.0-18.0","""event"",""trial"",""time""
""fullscreenenter"",""0"",""4360""
","
","
","""event"",""trial"",""time""
""fullscreenenter"",""0"",""4360""
","
","555","<div class='center'><img src='run_exp/static/images/tutorial/blue.png' height='500'></p></div>","49","","","","","","","","","","","","","","","","","","","","","","",""
"","html-keyboard-response","19","128738","0.0-19.0","""event"",""trial"",""time""
""fullscreenenter"",""0"",""4360""
","
","
","""event"",""trial"",""time""
""fullscreenenter"",""0"",""4360""
","
","null","<div class='center'><p><img src='run_exp/static/images/tutorial/blue_win.png' height='500'></p></div>","null","","","","","","","","","","","","","","","","","","","","","","",""
"","html-keyboard-response","20","129257","0.0-20.0","""event"",""trial"",""time""
""fullscreenenter"",""0"",""4360""
","
","
","""event"",""trial"",""time""
""fullscreenenter"",""0"",""4360""
","
","515.3000000002794","<div class='center'><img src='run_exp/static/images/tutorial/blue.png' height='500'></p></div>","49","","","","","","","","","","","","","","","","","","","","","","",""
"","html-keyboard-response","21","130759","0.0-21.0","""event"",""trial"",""time""
""fullscreenenter"",""0"",""4360""
","
","
","""event"",""trial"",""time""
""fullscreenenter"",""0"",""4360""
","
","null","<div class='center'><p><img src='run_exp/static/images/tutorial/blue_win.png' height='500'></p></div>","null","","","","","","","","","","","","","","","","","","","","","","",""
"","html-keyboard-response","22","131786","0.0-22.0","""event"",""trial"",""time""
""fullscreenenter"",""0"",""4360""
","
","
","""event"",""trial"",""time""
""fullscreenenter"",""0"",""4360""
","
","1023.8999999999069","<div class='center'><img src='run_exp/static/images/tutorial/blue.png' height='500'></p></div>","49","","","","","","","","","","","","","","","","","","","","","","",""
"","html-keyboard-response","23","133290","0.0-23.0","""event"",""trial"",""time""
""fullscreenenter"",""0"",""4360""
","
","
","""event"",""trial"",""time""
""fullscreenenter"",""0"",""4360""
","
","null","<div class='center'><p><img src='run_exp/static/images/tutorial/blue_win.png' height='500'></p></div>","null","","","","","","","","","","","","","","","","","","","","","","",""
"","html-keyboard-response","24","133834","0.0-24.0","""event"",""trial"",""time""
""fullscreenenter"",""0"",""4360""
","
","
","""event"",""trial"",""time""
""fullscreenenter"",""0"",""4360""
","
","538.7999999998137","<div class='center'><img src='run_exp/static/images/tutorial/blue.png' height='500'></p></div>","49","","","","","","","","","","","","","","","","","","","","","","",""
"","html-keyboard-response","25","135340","0.0-25.0","""event"",""trial"",""time""
""fullscreenenter"",""0"",""4360""
","
","
","""event"",""trial"",""time""
""fullscreenenter"",""0"",""4360""
","
","null","<div class='center'><p><img src='run_exp/static/images/tutorial/blue_no_win.png' height='500'></p></div>","null","","","","","","","","","","","","","","","","","","","","","","",""
"","html-keyboard-response","26","135932","0.0-26.0","""event"",""trial"",""time""
""fullscreenenter"",""0"",""4360""
","
","
","""event"",""trial"",""time""
""fullscreenenter"",""0"",""4360""
","
","588.5","<div class='center'><img src='run_exp/static/images/tutorial/blue.png' height='500'></p></div>","49","","","","","","","","","","","","","","","","","","","","","","",""
"","html-keyboard-response","27","137438","0.0-27.0","""event"",""trial"",""time""
""fullscreenenter"",""0"",""4360""
","
","
","""event"",""trial"",""time""
""fullscreenenter"",""0"",""4360""
","
","null","<div class='center'><p><img src='run_exp/static/images/tutorial/blue_win.png' height='500'></p></div>","null","","","","","","","","","","","","","","","","","","","","","","",""
"","html-keyboard-response","28","138214","0.0-28.0","""event"",""trial"",""time""
""fullscreenenter"",""0"",""4360""
","
","
","""event"",""trial"",""time""
""fullscreenenter"",""0"",""4360""
","
","768.6999999997206","<div class='center'><img src='run_exp/static/images/tutorial/blue.png' height='500'></p></div>","49","","","","","","","","","","","","","","","","","","","","","","",""
"","html-keyboard-response","29","139719","0.0-29.0","""event"",""trial"",""time""
""fullscreenenter"",""0"",""4360""
","
","
","""event"",""trial"",""time""
""fullscreenenter"",""0"",""4360""
","
","null","<div class='center'><p><img src='run_exp/static/images/tutorial/blue_win.png' height='500'></p></div>","null","","","","","","","","","","","","","","","","","","","","","","",""
"","instruc6","30","145230","0.0-30.0","""event"",""trial"",""time""
""fullscreenenter"",""0"",""4360""
","
","
","""event"",""trial"",""time""
""fullscreenenter"",""0"",""4360""
","
","null","run_exp/static/audio/clip_6_blue_beard_outcome.m4a","null","","","","","<div class='center'><p> See, he succeeded in robbing the ships most of the time but not every time. </p></div>","","","","","","","","","","","","","","","","","",""
"","html-keyboard-response","31","147055","0.0-31.0","""event"",""trial"",""time""
""fullscreenenter"",""0"",""4360""
","
","
","""event"",""trial"",""time""
""fullscreenenter"",""0"",""4360""
","
","1820.6999999997206","<div class='center'><p> See, he succeeded in robbing the ships most of the time but not every time. </p><p><b>[Press the space bar to continue]</b></p></div>","32","","","","","","","","","","","","","","","","","","","","","","",""
"","audio-keyboard-response","32","158717","0.0-32.0","""event"",""trial"",""time""
""fullscreenenter"",""0"",""4360""
","
","
","""event"",""trial"",""time""
""fullscreenenter"",""0"",""4360""
","
","11655","run_exp/static/audio/clip_7_pick_pirate.m4a","49","","","","","","","","","","","","","","","","","","","","","","",""
"","audio-keyboard-response","33","163128","0.0-33.0-0.0","""event"",""trial"",""time""
""fullscreenenter"",""0"",""4360""
","
","
","""event"",""trial"",""time""
""fullscreenenter"",""0"",""4360""
","
","4402","run_exp/static/audio/clip_8_chosen_pirate_win.m4a","32","","","","","","","","","","","","","","","","","","","","","","",""
"","audio-keyboard-response","34","165134","0.0-33.0-1.0","""event"",""trial"",""time""
""fullscreenenter"",""0"",""4360""
","
","
","""event"",""trial"",""time""
""fullscreenenter"",""0"",""4360""
","
","1996.7000000001863","run_exp/static/audio/clip_9_pick_a_pirate_again.m4a","49","","","","","","","","","","","","","","","","","","","","","","",""
"","audio-keyboard-response","35","169559","0.0-34.0-0.0","""event"",""trial"",""time""
""fullscreenenter"",""0"",""4360""
","
","
","""event"",""trial"",""time""
""fullscreenenter"",""0"",""4360""
","
","4414.199999999721","run_exp/static/audio/clip_10_chosen_pirate_loss.m4a","32","","","","","","","","","","","","","","","","","","","","","","",""
"","instruc9","36","175315","0.0-35.0-0.0","""event"",""trial"",""time""
""fullscreenenter"",""0"",""4360""
","
","
","""event"",""trial"",""time""
""fullscreenenter"",""0"",""4360""
","
","null","run_exp/static/audio/clip_11_time_out.m4a","null","","","","","<div class='center'><p>If you don’t make your choice fast enough, you’ll have to wait a few seconds before you can make another one. </p><p><img src='run_exp/static/images/miscellaneous/hurry_up.png' height='500'></p></div>","","","","","","","","","","","","","","","","","",""
"","html-keyboard-response","37","176350","0.0-35.0-1.0","""event"",""trial"",""time""
""fullscreenenter"",""0"",""4360""
","
","
","""event"",""trial"",""time""
""fullscreenenter"",""0"",""4360""
","
","1029","<div class='center'><p>If you don’t make your choice fast enough, you’ll have to wait a few seconds before you can make another one. </p><p><img src='run_exp/static/images/miscellaneous/hurry_up.png' height='500'></p><p><b>[Press the space bar to continue]</b></p></div>","32","","","","","","","","","","","","","","","","","","","","","","",""
"","instruc10","38","215605","0.0-35.0-2.0","""event"",""trial"",""time""
""fullscreenenter"",""0"",""4360""
","
","
","""event"",""trial"",""time""
""fullscreenenter"",""0"",""4360""
","
","null","run_exp/static/audio/clip_12_probe.m4a","null","","","","","<div class='center'><p>Once you've chosen a pirate, you’ll be shown the ship they are robbing. You will never rob the same ship twice. Ships can be told apart from one another by the image on them. These are the goods that they sell. See, this ship has a travel mug on it. </p><p> You’ll have to remember which island you saw each ship on. You will win more gold coins and hence more bonus money if you remember correctly! To help you remember, you can imagine a story. For example, here, you could imagine a mug full of water in the desert. Or, as another example, if on the forest island, your pirate robbed a ship with an apple on it, you could imagine an apple falling from a tree in the forest. </p><p><img src='run_exp/static/images/tutorial/example_probe.png' height='500'></p></div>","","","","","","","","","","","","","","","","","",""
"","html-keyboard-response","39","217457","0.0-35.0-3.0","""event"",""trial"",""time""
""fullscreenenter"",""0"",""4360""
","
","
","""event"",""trial"",""time""
""fullscreenenter"",""0"",""4360""
","
","1846.1999999997206","<div class='center'><p>Once you've chosen a pirate, you’ll be shown the ship they are robbing. You will never rob the same ship twice. Ships can be told apart from one another by the image on them. These are the goods that they sell. See, this ship has a travel mug on it. </p><p> You’ll have to remember which island you saw each ship on. You will win more gold coins and hence more bonus money if you remember correctly! To help you remember, you can imagine a story. For example, here, you could imagine a mug full of water in the desert. Or, as another example, if on the forest island, your pirate robbed a ship with an apple on it, you could imagine an apple falling from a tree in the forest. </p><p><img src='run_exp/static/images/tutorial/example_probe.png' height='500'></p><p><b>[Press the space bar to continue]</b></p></div>","32","","","","","","","","","","","","","","","","","","","","","","",""
"","instruc11","40","234075","0.0-35.0-4.0","""event"",""trial"",""time""
""fullscreenenter"",""0"",""4360""
","
","
","""event"",""trial"",""time""
""fullscreenenter"",""0"",""4360""
","
","null","run_exp/static/audio/clip_13_changepoint.m4a","null","","","","","<div class='center'><p>How successful a pirate is at robbing ships will depend on the island you’re on.</p><p> A pirate may have visited this island many times before and gained a lot of practice robbing ships there.</p><p>So, they’re more likely to be successful than a pirate who has never visited the island before.</p></div>","","","","","","","","","","","","","","","","","",""
"","html-keyboard-response","41","234689","0.0-35.0-5.0","""event"",""trial"",""time""
""fullscreenenter"",""0"",""4360""
","
","
","""event"",""trial"",""time""
""fullscreenenter"",""0"",""4360""
","
","610.2999999998137","<div class='center'><p>How successful a pirate is at robbing ships will depend on the island you’re on.</p><p> A pirate may have visited this island many times before and gained a lot of practice robbing ships there.</p><p>So, they’re more likely to be successful than a pirate who has never visited the island before.</p><p><b>[Press the space bar to continue]</b></p></div>","32","","","","","","","","","","","","","","","","","","","","","","",""
"","instruc12","42","275943","0.0-35.0-6.0","""event"",""trial"",""time""
""fullscreenenter"",""0"",""4360""
","
","
","""event"",""trial"",""time""
""fullscreenenter"",""0"",""4360""
","
","null","run_exp/static/audio/clip_14_drift.m4a","null","","","","","<div class='center'><p>How successful a pirate is at robbing ships can also change over the time spent on the island. </p><p> Ships may hear from islanders about the pirates coming and will improve their protections against the attack. This may make it harder to rob them.</p><p> Ships may also become lazy and weaken the strength of their protections. This may make it easier to rob them.</p><br><p>Things are always changing on the high seas! So, try your best to pay attention!</p><p><img src='run_exp/static/images/tutorial/contingency.png' height='500'></p></div>","","","","","","","","","","","","","","","","","",""
"","html-keyboard-response","43","288919","0.0-35.0-7.0","""event"",""trial"",""time""
""fullscreenenter"",""0"",""4360""
","
","
","""event"",""trial"",""time""
""fullscreenenter"",""0"",""4360""
","
","12972.799999999814","<div class='center'><p>How successful a pirate is at robbing ships can also change over the time spent on the island. </p><p> Ships may hear from islanders about the pirates coming and will improve their protections against the attack. This may make it harder to rob them.</p><p> Ships may also become lazy and weaken the strength of their protections. This may make it easier to rob them.</p><br><p>Things are always changing on the high seas! So, try your best to pay attention!</p><p><img src='run_exp/static/images/tutorial/contingency.png' height='500'></p><p><b>[Press the space bar to continue]</b></p></div>","32","","","","","","","","","","","","","","","","","","","","","","",""
"","instruc13","44","324230","0.0-35.0-8.0","""event"",""trial"",""time""
""fullscreenenter"",""0"",""4360""
","
","
","""event"",""trial"",""time""
""fullscreenenter"",""0"",""4360""
","
","null","run_exp/static/audio/clip_15_summary.m4a","null","","","","","<div class='center'><p>Let's go over the instructions quickly again. You have two important things to do: </p><b><p> 1. Pick the pirate who is the best at robbing ships on the current island. </p></b><b><p> 2. Remember on which island a ship was robbed.</p> </b><p>The amount of bonus money you can win depends on both.</p><p><br><p>Let’s try a practice game. The game will start by showing you the pirates. First, pick a pirate using the <b> 1, 2, 3 </b> keys on your keyboard. When you are shown a ship, try to remember which island you’re on by making up a story.</p><p>This is just a practice game, so you’re not playing for money. </p><p> Good luck! This game will be very difficult but try your best!</p></div>","","","","","","","","","","","","","","","","","",""
"","html-keyboard-response","45","325356","0.0-35.0-9.0","""event"",""trial"",""time""
""fullscreenenter"",""0"",""4360""
","
","
","""event"",""trial"",""time""
""fullscreenenter"",""0"",""4360""
","
","1122","<div class='center'><p>Let's go over the instructions quickly again. You have two important things to do: </p><b><p> 1. Pick the pirate who is the best at robbing ships on the current island. </p></b><b><p> 2. Remember on which island a ship was robbed.</p> </b><p>The amount of bonus money you can win depends on both.</p><p><br><p>Let’s try a practice game. The game will start by showing you the pirates. First, pick a pirate using the <b> 1, 2, 3 </b> keys on your keyboard. When you are shown a ship, try to remember which island you’re on by making up a story.</p><p>This is just a practice game, so you’re not playing for money. </p><p> Good luck! This game will be very difficult but try your best!</p><p><b>[Press the space bar to continue]</b></p></div>","32","","","","","","","","","","","","","","","","","","","","","","",""
"","do_welcome","46","329384","0.0-35.0-10.0","""event"",""trial"",""time""
""fullscreenenter"",""0"",""4360""
","
","
","""event"",""trial"",""time""
""fullscreenenter"",""0"",""4360""
","
","null","","","","","","","","null","","","","","","","","","","","","","","","","",""
"","do_trial","47","335397","0.0-35.0-11.0","""event"",""trial"",""time""
""fullscreenenter"",""0"",""4360""
","
","
","""event"",""trial"",""time""
""fullscreenenter"",""0"",""4360""
","
","null","","","","","","","","null","1,0,0","","","","","","","","","","","","","","","",""
"","html-keyboard-response","48","336399","0.0-36.0-0.0","""event"",""trial"",""time""
""fullscreenenter"",""0"",""4360""
""fullscreenexit"",""49"",""336539""
","
","
","""event"",""trial"",""time""
""fullscreenenter"",""0"",""4360""
","""event"",""trial"",""time""
""fullscreenexit"",""49"",""336539""
","null","<p></p>","null","","","","","","","","","","","","","","","","","","","","","","",""
"","do_trial","49","343361","0.0-36.0-1.0","""event"",""trial"",""time""
""fullscreenenter"",""0"",""4360""
""fullscreenexit"",""49"",""336539""
","
","
","""event"",""trial"",""time""
""fullscreenenter"",""0"",""4360""
","""event"",""trial"",""time""
""fullscreenexit"",""49"",""336539""
","2451.1999999997206","","","","","","","","50","1,0,0","","","","","","","","","","","","","","","",""
"","html-keyboard-response","50","344363","0.0-37.0-0.0","""event"",""trial"",""time""
""fullscreenenter"",""0"",""4360""
""fullscreenexit"",""49"",""336539""
","
","
","""event"",""trial"",""time""
""fullscreenenter"",""0"",""4360""
","""event"",""trial"",""time""
""fullscreenexit"",""49"",""336539""
","null","<p></p>","null","","","","","","","","","","","","","","","","","","","","","","",""
"","do_trial","51","350375","0.0-37.0-1.0","""event"",""trial"",""time""
""fullscreenenter"",""0"",""4360""
""fullscreenexit"",""49"",""336539""
","
","
","""event"",""trial"",""time""
""fullscreenenter"",""0"",""4360""
","""event"",""trial"",""time""
""fullscreenexit"",""49"",""336539""
","null","","","","","","","","null","1,1,0","","","","","","","","","","","","","","","",""
"","html-keyboard-response","52","351378","0.0-38.0-0.0","""event"",""trial"",""time""
""fullscreenenter"",""0"",""4360""
""fullscreenexit"",""49"",""336539""
","
","
","""event"",""trial"",""time""
""fullscreenenter"",""0"",""4360""
","""event"",""trial"",""time""
""fullscreenexit"",""49"",""336539""
","null","<p></p>","null","","","","","","","","","","","","","","","","","","","","","","",""
"","do_trial","53","357189","0.0-38.0-1.0","""event"",""trial"",""time""
""fullscreenenter"",""0"",""4360""
""fullscreenexit"",""49"",""336539""
","
","
","""event"",""trial"",""time""
""fullscreenenter"",""0"",""4360""
","""event"",""trial"",""time""
""fullscreenexit"",""49"",""336539""
","1300.6000000000931","","","","","","","","49","1,1,0","","","","","","","","","","","","","","","",""
"","html-keyboard-response","54","358192","0.0-39.0-0.0","""event"",""trial"",""time""
""fullscreenenter"",""0"",""4360""
""fullscreenexit"",""49"",""336539""
","
","
","""event"",""trial"",""time""
""fullscreenenter"",""0"",""4360""
","""event"",""trial"",""time""
""fullscreenexit"",""49"",""336539""
","null","<p></p>","null","","","","","","","","","","","","","","","","","","","","","","",""
"","do_trial","55","364086","0.0-39.0-1.0","""event"",""trial"",""time""
""fullscreenenter"",""0"",""4360""
""fullscreenexit"",""49"",""336539""
","
","
","""event"",""trial"",""time""
""fullscreenenter"",""0"",""4360""
","""event"",""trial"",""time""
""fullscreenexit"",""49"",""336539""
","1373.1000000000931","","","","","","","","50","1,0,1","","","","","","","","","","","","","","","",""
"","html-keyboard-response","56","365090","0.0-40.0-0.0","""event"",""trial"",""time""
""fullscreenenter"",""0"",""4360""
""fullscreenexit"",""49"",""336539""
","
","
","""event"",""trial"",""time""
""fullscreenenter"",""0"",""4360""
","""event"",""trial"",""time""
""fullscreenexit"",""49"",""336539""
","null","<p></p>","null","","","","","","","","","","","","","","","","","","","","","","",""
"","do_trial","57","370652","0.0-40.0-1.0","""event"",""trial"",""time""
""fullscreenenter"",""0"",""4360""
""fullscreenexit"",""49"",""336539""
","
","
","""event"",""trial"",""time""
""fullscreenenter"",""0"",""4360""
","""event"",""trial"",""time""
""fullscreenexit"",""49"",""336539""
","1047.2999999998137","","","","","","","","51","0,1,0","","","","","","","","","","","","","","","",""
"","html-keyboard-response","58","371655","0.0-41.0-0.0","""event"",""trial"",""time""
""fullscreenenter"",""0"",""4360""
""fullscreenexit"",""49"",""336539""
","
","
","""event"",""trial"",""time""
""fullscreenenter"",""0"",""4360""
","""event"",""trial"",""time""
""fullscreenexit"",""49"",""336539""
","null","<p></p>","null","","","","","","","","","","","","","","","","","","","","","","",""
"","do_trial","59","377673","0.0-41.0-1.0","""event"",""trial"",""time""
""fullscreenenter"",""0"",""4360""
""fullscreenexit"",""49"",""336539""
","
","
","""event"",""trial"",""time""
""fullscreenenter"",""0"",""4360""
","""event"",""trial"",""time""
""fullscreenexit"",""49"",""336539""
","null","","","","","","","","null","1,0,0","","","","","","","","","","","","","","","",""
"","html-keyboard-response","60","378682","0.0-42.0-0.0","""event"",""trial"",""time""
""fullscreenenter"",""0"",""4360""
""fullscreenexit"",""49"",""336539""
","
","
","""event"",""trial"",""time""
""fullscreenenter"",""0"",""4360""
","""event"",""trial"",""time""
""fullscreenexit"",""49"",""336539""
","null","<p></p>","null","","","","","","","","","","","","","","","","","","","","","","",""
"","do_trial","61","384041","0.0-42.0-1.0","""event"",""trial"",""time""
""fullscreenenter"",""0"",""4360""
""fullscreenexit"",""49"",""336539""
","
","
","""event"",""trial"",""time""
""fullscreenenter"",""0"",""4360""
","""event"",""trial"",""time""
""fullscreenexit"",""49"",""336539""
","834.6000000000931","","","","","","","","49","1,0,0","","","","","","","","","","","","","","","",""
"","do_bye","62","385565","0.0-43.0-0.0","""event"",""trial"",""time""
""fullscreenenter"",""0"",""4360""
""fullscreenexit"",""49"",""336539""
","
","
","""event"",""trial"",""time""
""fullscreenenter"",""0"",""4360""
","""event"",""trial"",""time""
""fullscreenexit"",""49"",""336539""
","null","","","","","","","","null","","","","","","","","","","","","","","","","",""
"","do_travel","63","394574","0.0-43.0-1.0","""event"",""trial"",""time""
""fullscreenenter"",""0"",""4360""
""fullscreenexit"",""49"",""336539""
","
","
","""event"",""trial"",""time""
""fullscreenenter"",""0"",""4360""
","""event"",""trial"",""time""
""fullscreenexit"",""49"",""336539""
","null","","","","","","","","null","","","","","","","","","","","","","","","","",""
"","do_welcome","64","398588","0.0-43.0-2.0","""event"",""trial"",""time""
""fullscreenenter"",""0"",""4360""
""fullscreenexit"",""49"",""336539""
","
","
","""event"",""trial"",""time""
""fullscreenenter"",""0"",""4360""
","""event"",""trial"",""time""
""fullscreenexit"",""49"",""336539""
","null","","","","","","","","null","","","","","","","","","","","","","","","","",""
"","do_trial","65","404262","0.0-43.0-3.0","""event"",""trial"",""time""
""fullscreenenter"",""0"",""4360""
""fullscreenexit"",""49"",""336539""
","
","
","""event"",""trial"",""time""
""fullscreenenter"",""0"",""4360""
","""event"",""trial"",""time""
""fullscreenexit"",""49"",""336539""
","1157.3000000002794","","","","","","","","49","1,0,0","","","","","","","","","","","","","","","",""
"","html-keyboard-response","66","405266","0.0-44.0-0.0","""event"",""trial"",""time""
""fullscreenenter"",""0"",""4360""
""fullscreenexit"",""49"",""336539""
","
","
","""event"",""trial"",""time""
""fullscreenenter"",""0"",""4360""
","""event"",""trial"",""time""
""fullscreenexit"",""49"",""336539""
","null","<p></p>","null","","","","","","","","","","","","","","","","","","","","","","",""
"","do_trial","67","411177","0.0-44.0-1.0","""event"",""trial"",""time""
""fullscreenenter"",""0"",""4360""
""fullscreenexit"",""49"",""336539""
","
","
","""event"",""trial"",""time""
""fullscreenenter"",""0"",""4360""
","""event"",""trial"",""time""
""fullscreenexit"",""49"",""336539""
","1391.3000000002794","","","","","","","","50","1,0,1","","","","","","","","","","","","","","","",""
"","html-keyboard-response","68","412183","0.0-45.0-0.0","""event"",""trial"",""time""
""fullscreenenter"",""0"",""4360""
""fullscreenexit"",""49"",""336539""
","
","
","""event"",""trial"",""time""
""fullscreenenter"",""0"",""4360""
","""event"",""trial"",""time""
""fullscreenexit"",""49"",""336539""
","null","<p></p>","null","","","","","","","","","","","","","","","","","","","","","","",""
"","do_trial","69","417699","0.0-45.0-1.0","""event"",""trial"",""time""
""fullscreenenter"",""0"",""4360""
""fullscreenexit"",""49"",""336539""
","
","
","""event"",""trial"",""time""
""fullscreenenter"",""0"",""4360""
","""event"",""trial"",""time""
""fullscreenexit"",""49"",""336539""
","991.8000000002794","","","","","","","","51","1,1,0","","","","","","","","","","","","","","","",""
"","html-keyboard-response","70","418707","0.0-46.0-0.0","""event"",""trial"",""time""
""fullscreenenter"",""0"",""4360""
""fullscreenexit"",""49"",""336539""
","
","
","""event"",""trial"",""time""
""fullscreenenter"",""0"",""4360""
","""event"",""trial"",""time""
""fullscreenexit"",""49"",""336539""
","null","<p></p>","null","","","","","","","","","","","","","","","","","","","","","","",""
"","do_trial","71","423745","0.0-46.0-1.0","""event"",""trial"",""time""
""fullscreenenter"",""0"",""4360""
""fullscreenexit"",""49"",""336539""
","
","
","""event"",""trial"",""time""
""fullscreenenter"",""0"",""4360""
","""event"",""trial"",""time""
""fullscreenexit"",""49"",""336539""
","514.1999999997206","","","","","","","","49","0,0,1","","","","","","","","","","","","","","","",""
"","html-keyboard-response","72","424752","0.0-47.0-0.0","""event"",""trial"",""time""
""fullscreenenter"",""0"",""4360""
""fullscreenexit"",""49"",""336539""
","
","
","""event"",""trial"",""time""
""fullscreenenter"",""0"",""4360""
","""event"",""trial"",""time""
""fullscreenexit"",""49"",""336539""
","null","<p></p>","null","","","","","","","","","","","","","","","","","","","","","","",""
"","do_trial","73","429858","0.0-47.0-1.0","""event"",""trial"",""time""
""fullscreenenter"",""0"",""4360""
""fullscreenexit"",""49"",""336539""
","
","
","""event"",""trial"",""time""
""fullscreenenter"",""0"",""4360""
","""event"",""trial"",""time""
""fullscreenexit"",""49"",""336539""
","587.0999999996275","","","","","","","","49","1,0,1","","","","","","","","","","","","","","","",""
"","html-keyboard-response","74","434636","0.0-48.0-0.0","""event"",""trial"",""time""
""fullscreenenter"",""0"",""4360""
""fullscreenexit"",""49"",""336539""
","
","
","""event"",""trial"",""time""
""fullscreenenter"",""0"",""4360""
","""event"",""trial"",""time""
""fullscreenexit"",""49"",""336539""
","4768.399999999907","<div class='center'><p><img src='run_exp/static/images/tutorial/prac_best_pirate.png'  height='500'></p></div>","49","","","","","","","","","","","","","","","","","","","","","","",""
"","html-keyboard-response","75","436685","0.0-49.0-0.0","""event"",""trial"",""time""
""fullscreenenter"",""0"",""4360""
""fullscreenexit"",""49"",""336539""
","
","
","""event"",""trial"",""time""
""fullscreenenter"",""0"",""4360""
","""event"",""trial"",""time""
""fullscreenexit"",""49"",""336539""
","2045.6000000000931","<div class='center'><p>That's correct! Red beard was the best.</p><p><b>[Press the space bar to continue]</b></p></div>","32","","","","","","","","","","","","","","","","","","","","","","",""
"","html-keyboard-response","76","442884","0.0-49.0-1.0","""event"",""trial"",""time""
""fullscreenenter"",""0"",""4360""
""fullscreenexit"",""49"",""336539""
","
","
","""event"",""trial"",""time""
""fullscreenenter"",""0"",""4360""
","""event"",""trial"",""time""
""fullscreenexit"",""49"",""336539""
","6193.899999999907","<div class='center'><p><img src='run_exp/static/images/tutorial/prac_source.png'  height='500'></p></div>","50","","","","","","","","","","","","","","","","","","","","","","",""
"","html-keyboard-response","77","445384","0.0-50.0-0.0","""event"",""trial"",""time""
""fullscreenenter"",""0"",""4360""
""fullscreenexit"",""49"",""336539""
","
","
","""event"",""trial"",""time""
""fullscreenenter"",""0"",""4360""
","""event"",""trial"",""time""
""fullscreenexit"",""49"",""336539""
","2494.100000000093","<div class='center'><p>That's correct! You saw this ship on the cavern island.</p><p><b>[Press the space bar to continue]</b></p></div>","32","","","","","","","","","","","","","","","","","","","","","","",""
"","quiz_beginning","78","456704","0.0-50.0-1.0","""event"",""trial"",""time""
""fullscreenenter"",""0"",""4360""
""fullscreenexit"",""49"",""336539""
","
","
","""event"",""trial"",""time""
""fullscreenenter"",""0"",""4360""
","""event"",""trial"",""time""
""fullscreenexit"",""49"",""336539""
","null","run_exp/static/audio/clip_16_quiz_intro.m4a","null","","","","","<div class='center'><p>Good job on the practice game! Now, you will be asked some true or false questions to make sure you really understand the rules of the game.</p><p> Press <b>'1'</b> on the keyboard for true and press <b>'2'</b> for false.</p></div>","","","","","","","","","","","","","","","","","",""
"","audio-keyboard-response","79","461263","0.0-50.0-2.0","""event"",""trial"",""time""
""fullscreenenter"",""0"",""4360""
""fullscreenexit"",""49"",""336539""
","
","
","""event"",""trial"",""time""
""fullscreenenter"",""0"",""4360""
","""event"",""trial"",""time""
""fullscreenexit"",""49"",""336539""
","4547.9000000003725","run_exp/static/audio/clip_17_q1.m4a","49","","","","","","","","","","","","","","","","","","","","","","",""
"","correct","80","463852","0.0-51.0-0.0","""event"",""trial"",""time""
""fullscreenenter"",""0"",""4360""
""fullscreenexit"",""49"",""336539""
","
","
","""event"",""trial"",""time""
""fullscreenenter"",""0"",""4360""
","""event"",""trial"",""time""
""fullscreenexit"",""49"",""336539""
","null","run_exp/static/audio/clip_18_correct.m4a","null","","","","","<div class='center'><p>That's correct!</p></div>","","","","","","","","","","","","","","","","","",""
"","html-keyboard-response","81","465579","0.0-51.0-1.0","""event"",""trial"",""time""
""fullscreenenter"",""0"",""4360""
""fullscreenexit"",""49"",""336539""
","
","
","""event"",""trial"",""time""
""fullscreenenter"",""0"",""4360""
","""event"",""trial"",""time""
""fullscreenexit"",""49"",""336539""
","1720.1000000000931","<div class='center'><p>That's correct!</p><p><b>[Press the space bar to continue]</b></p></div>","32","","","","","","","","","","","","","","","","","","","","","","",""
"","audio-keyboard-response","82","471902","0.0-51.0-2.0","""event"",""trial"",""time""
""fullscreenenter"",""0"",""4360""
""fullscreenexit"",""49"",""336539""
","
","
","""event"",""trial"",""time""
""fullscreenenter"",""0"",""4360""
","""event"",""trial"",""time""
""fullscreenexit"",""49"",""336539""
","6315.600000000093","run_exp/static/audio/clip_20_q2.m4a","50","","","","","","","","","","","","","","","","","","","","","","",""
"","correct","83","474435","0.0-52.0-0.0","""event"",""trial"",""time""
""fullscreenenter"",""0"",""4360""
""fullscreenexit"",""49"",""336539""
","
","
","""event"",""trial"",""time""
""fullscreenenter"",""0"",""4360""
","""event"",""trial"",""time""
""fullscreenexit"",""49"",""336539""
","null","run_exp/static/audio/clip_18_correct.m4a","null","","","","","<div class='center'><p>That's correct!</p></div>","","","","","","","","","","","","","","","","","",""
"","html-keyboard-response","84","475306","0.0-52.0-1.0","""event"",""trial"",""time""
""fullscreenenter"",""0"",""4360""
""fullscreenexit"",""49"",""336539""
","
","
","""event"",""trial"",""time""
""fullscreenenter"",""0"",""4360""
","""event"",""trial"",""time""
""fullscreenexit"",""49"",""336539""
","865.8999999999069","<div class='center'><p>That's correct!</p><p><b>[Press the space bar to continue]</b></p></div>","32","","","","","","","","","","","","","","","","","","","","","","",""
"","audio-keyboard-response","85","480270","0.0-52.0-2.0","""event"",""trial"",""time""
""fullscreenenter"",""0"",""4360""
""fullscreenexit"",""49"",""336539""
","
","
","""event"",""trial"",""time""
""fullscreenenter"",""0"",""4360""
","""event"",""trial"",""time""
""fullscreenexit"",""49"",""336539""
","4958.199999999721","run_exp/static/audio/clip_22_q3.m4a","50","","","","","","","","","","","","","","","","","","","","","","",""
"","correct","86","482792","0.0-53.0-0.0","""event"",""trial"",""time""
""fullscreenenter"",""0"",""4360""
""fullscreenexit"",""49"",""336539""
","
","
","""event"",""trial"",""time""
""fullscreenenter"",""0"",""4360""
","""event"",""trial"",""time""
""fullscreenexit"",""49"",""336539""
","null","run_exp/static/audio/clip_18_correct.m4a","null","","","","","<div class='center'><p>That's correct!</p></div>","","","","","","","","","","","","","","","","","",""
"","html-keyboard-response","87","484094","0.0-53.0-1.0","""event"",""trial"",""time""
""fullscreenenter"",""0"",""4360""
""fullscreenexit"",""49"",""336539""
","
","
","""event"",""trial"",""time""
""fullscreenenter"",""0"",""4360""
","""event"",""trial"",""time""
""fullscreenexit"",""49"",""336539""
","1297.0999999996275","<div class='center'><p>That's correct!</p><p><b>[Press the space bar to continue]</b></p></div>","32","","","","","","","","","","","","","","","","","","","","","","",""
"","audio-keyboard-response","88","486563","0.0-53.0-2.0","""event"",""trial"",""time""
""fullscreenenter"",""0"",""4360""
""fullscreenexit"",""49"",""336539""
","
","
","""event"",""trial"",""time""
""fullscreenenter"",""0"",""4360""
","""event"",""trial"",""time""
""fullscreenexit"",""49"",""336539""
","2461.7999999998137","run_exp/static/audio/clip_24_q4.m4a","49","","","","","","","","","","","","","","","","","","","","","","",""
"","correct","89","489294","0.0-54.0-0.0","""event"",""trial"",""time""
""fullscreenenter"",""0"",""4360""
""fullscreenexit"",""49"",""336539""
","
","
","""event"",""trial"",""time""
""fullscreenenter"",""0"",""4360""
","""event"",""trial"",""time""
""fullscreenexit"",""49"",""336539""
","null","run_exp/static/audio/clip_18_correct.m4a","null","","","","","<div class='center'><p>That's correct!</p></div>","","","","","","","","","","","","","","","","","",""
"","html-keyboard-response","90","489858","0.0-54.0-1.0","""event"",""trial"",""time""
""fullscreenenter"",""0"",""4360""
""fullscreenexit"",""49"",""336539""
","
","
","""event"",""trial"",""time""
""fullscreenenter"",""0"",""4360""
","""event"",""trial"",""time""
""fullscreenexit"",""49"",""336539""
","561.1000000000931","<div class='center'><p>That's correct!</p><p><b>[Press the space bar to continue]</b></p></div>","32","","","","","","","","","","","","","","","","","","","","","","",""
"","q_all_corr","91","498574","0.0-55.0-0.0","""event"",""trial"",""time""
""fullscreenenter"",""0"",""4360""
""fullscreenexit"",""49"",""336539""
","
","
","""event"",""trial"",""time""
""fullscreenenter"",""0"",""4360""
","""event"",""trial"",""time""
""fullscreenexit"",""49"",""336539""
","null","run_exp/static/audio/clip_27_quiz_all_correct.m4a","null","","","","","<div class='center'><p>Good job! You’re now ready to move on to the real game! Remember this game will be difficult but don't get discouraged and try your best!</p></div>","","","","","","","","","","","","","","","","","",""
"","html-keyboard-response","92","500391","0.0-55.0-1.0","""event"",""trial"",""time""
""fullscreenenter"",""0"",""4360""
""fullscreenexit"",""49"",""336539""
","
","
","""event"",""trial"",""time""
""fullscreenenter"",""0"",""4360""
","""event"",""trial"",""time""
""fullscreenexit"",""49"",""336539""
","1813.6000000000931","<div class='center'><p>Good job! You’re now ready to move on to the real game! Remember this game will be difficult but don't get discouraged and try your best!</p><p><b>[Press the space bar to continue]</b></p></div>","32","","","","","","","","","","","","","","","","","","","","","","",""
"","do_welcome","93","504407","0.0-56.0-0.0","""event"",""trial"",""time""
""fullscreenenter"",""0"",""4360""
""fullscreenexit"",""49"",""336539""
","
","
","""event"",""trial"",""time""
""fullscreenenter"",""0"",""4360""
","""event"",""trial"",""time""
""fullscreenexit"",""49"",""336539""
","null","","","","","","","","null","","","","","","","","","","","","","","","","",""
"","do_trial","94","510094","0.0-57.0-0.0","""event"",""trial"",""time""
""fullscreenenter"",""0"",""4360""
""fullscreenexit"",""49"",""336539""
","
","
","""event"",""trial"",""time""
""fullscreenenter"",""0"",""4360""
","""event"",""trial"",""time""
""fullscreenexit"",""49"",""336539""
","1084.2000000001863","","","","","","","","49","0,0,1","0","mountain","0","probe-163","0.6","0.3","0.1","0","","","","","","","",""
"","html-keyboard-response","95","511100","0.0-57.0-1.0","""event"",""trial"",""time""
""fullscreenenter"",""0"",""4360""
""fullscreenexit"",""49"",""336539""
","
","
","""event"",""trial"",""time""
""fullscreenenter"",""0"",""4360""
","""event"",""trial"",""time""
""fullscreenexit"",""49"",""336539""
","null","<p></p>","null","","","","","","","","","","","","","","","","","","","","","","",""
"","do_trial","96","515976","0.0-58.0-0.0","""event"",""trial"",""time""
""fullscreenenter"",""0"",""4360""
""fullscreenexit"",""49"",""336539""
","
","
","""event"",""trial"",""time""
""fullscreenenter"",""0"",""4360""
","""event"",""trial"",""time""
""fullscreenexit"",""49"",""336539""
","258.6999999997206","","","","","","","","50","1,0,0","0","mountain","1","probe-122","0.6269242763574401","0.33042735191760564","0.06476881466313823","0","","","","","","","",""
"","html-keyboard-response","97","516982","0.0-58.0-1.0","""event"",""trial"",""time""
""fullscreenenter"",""0"",""4360""
""fullscreenexit"",""49"",""336539""
","
","
","""event"",""trial"",""time""
""fullscreenenter"",""0"",""4360""
","""event"",""trial"",""time""
""fullscreenexit"",""49"",""336539""
","null","<p></p>","null","","","","","","","","","","","","","","","","","","","","","","",""
"","do_trial","98","521981","0.0-59.0-0.0","""event"",""trial"",""time""
""fullscreenenter"",""0"",""4360""
""fullscreenexit"",""49"",""336539""
","
","
","""event"",""trial"",""time""
""fullscreenenter"",""0"",""4360""
","""event"",""trial"",""time""
""fullscreenexit"",""49"",""336539""
","380","","","","","","","","50","0,1,0","0","mountain","2","probe-125","0.6334091924484531","0.40534322888199426","0.07447910595291445","1","","","","","","","",""
"","html-keyboard-response","99","522986","0.0-59.0-1.0","""event"",""trial"",""time""
""fullscreenenter"",""0"",""4360""
""fullscreenexit"",""49"",""336539""
","
","
","""event"",""trial"",""time""
""fullscreenenter"",""0"",""4360""
","""event"",""trial"",""time""
""fullscreenexit"",""49"",""336539""
","null","<p></p>","null","","","","","","","","","","","","","","","","","","","","","","",""
"","do_trial","100","528485","0.0-60.0-0.0","""event"",""trial"",""time""
""fullscreenenter"",""0"",""4360""
""fullscreenexit"",""49"",""336539""
","
","
","""event"",""trial"",""time""
""fullscreenenter"",""0"",""4360""
","""event"",""trial"",""time""
""fullscreenexit"",""49"",""336539""
","890.4000000003725","","","","","","","","51","0,1,0","0","mountain","3","probe-51","0.5546043773898991","0.37110802217257977","0.05924955783356786","0","","","","","","","",""
"","html-keyboard-response","101","529492","0.0-60.0-1.0","""event"",""trial"",""time""
""fullscreenenter"",""0"",""4360""
""fullscreenexit"",""49"",""336539""
","
","
","""event"",""trial"",""time""
""fullscreenenter"",""0"",""4360""
","""event"",""trial"",""time""
""fullscreenexit"",""49"",""336539""
","null","<p></p>","null","","","","","","","","","","","","","","","","","","","","","","",""
"","do_trial","102","534564","0.0-61.0-0.0","""event"",""trial"",""time""
""fullscreenenter"",""0"",""4360""
""fullscreenexit"",""49"",""336539""
","
","
","""event"",""trial"",""time""
""fullscreenenter"",""0"",""4360""
","""event"",""trial"",""time""
""fullscreenexit"",""49"",""336539""
","463.5","","","","","","","","50","1,0,0","0","mountain","4","probe-171","0.4860613804851081","0.212894276773223","0.19730998825473894","0","","","","","","","",""
"","html-keyboard-response","103","535570","0.0-61.0-1.0","""event"",""trial"",""time""
""fullscreenenter"",""0"",""4360""
""fullscreenexit"",""49"",""336539""
","
","
","""event"",""trial"",""time""
""fullscreenenter"",""0"",""4360""
","""event"",""trial"",""time""
""fullscreenexit"",""49"",""336539""
","null","<p></p>","null","","","","","","","","","","","","","","","","","","","","","","",""
"","do_trial","104","540612","0.0-62.0-0.0","""event"",""trial"",""time""
""fullscreenenter"",""0"",""4360""
""fullscreenexit"",""49"",""336539""
","
","
","""event"",""trial"",""time""
""fullscreenenter"",""0"",""4360""
","""event"",""trial"",""time""
""fullscreenexit"",""49"",""336539""
","439.29999999981374","","","","","","","","49","0,1,0","0","mountain","5","probe-175","0.4944510846341437","0.36282116286751037","0.16936969781153452","0","","","","","","","",""
"","html-keyboard-response","105","541617","0.0-62.0-1.0","""event"",""trial"",""time""
""fullscreenenter"",""0"",""4360""
""fullscreenexit"",""49"",""336539""
","
","
","""event"",""trial"",""time""
""fullscreenenter"",""0"",""4360""
","""event"",""trial"",""time""
""fullscreenexit"",""49"",""336539""
","null","<p></p>","null","","","","","","","","","","","","","","","","","","","","","","",""
"","do_trial","106","546757","0.0-63.0-0.0","""event"",""trial"",""time""
""fullscreenenter"",""0"",""4360""
""fullscreenexit"",""49"",""336539""
","
","
","""event"",""trial"",""time""
""fullscreenenter"",""0"",""4360""
","""event"",""trial"",""time""
""fullscreenexit"",""49"",""336539""
","533.4000000003725","","","","","","","","50","1,0,0","0","mountain","6","probe-38","0.49541045739829004","0.2692467109578217","0.07111820501665313","0","","","","","","","",""
"","html-keyboard-response","107","547764","0.0-63.0-1.0","""event"",""trial"",""time""
""fullscreenenter"",""0"",""4360""
""fullscreenexit"",""49"",""336539""
","
","
","""event"",""trial"",""time""
""fullscreenenter"",""0"",""4360""
","""event"",""trial"",""time""
""fullscreenexit"",""49"",""336539""
","null","<p></p>","null","","","","","","","","","","","","","","","","","","","","","","",""
"","do_trial","108","552690","0.0-64.0-0.0","""event"",""trial"",""time""
""fullscreenenter"",""0"",""4360""
""fullscreenexit"",""49"",""336539""
","
","
","""event"",""trial"",""time""
""fullscreenenter"",""0"",""4360""
","""event"",""trial"",""time""
""fullscreenexit"",""49"",""336539""
","316.5","","","","","","","","50","1,0,0","0","mountain","7","probe-93","0.5119997566833365","0.3422688966387656","0.06146572379170747","0","","","","","","","",""
"","html-keyboard-response","109","553696","0.0-64.0-1.0","""event"",""trial"",""time""
""fullscreenenter"",""0"",""4360""
""fullscreenexit"",""49"",""336539""
","
","
","""event"",""trial"",""time""
""fullscreenenter"",""0"",""4360""
","""event"",""trial"",""time""
""fullscreenexit"",""49"",""336539""
","null","<p></p>","null","","","","","","","","","","","","","","","","","","","","","","",""
"","do_trial","110","559072","0.0-65.0-0.0","""event"",""trial"",""time""
""fullscreenenter"",""0"",""4360""
""fullscreenexit"",""49"",""336539""
","
","
","""event"",""trial"",""time""
""fullscreenenter"",""0"",""4360""
","""event"",""trial"",""time""
""fullscreenexit"",""49"",""336539""
","767.1999999997206","","","","","","","","51","1,0,1","0","mountain","8","probe-195","0.4324458219149636","0.2496864851858736","0.1315064147804159","1","","","","","","","",""
"","html-keyboard-response","111","560077","0.0-65.0-1.0","""event"",""trial"",""time""
""fullscreenenter"",""0"",""4360""
""fullscreenexit"",""49"",""336539""
","
","
","""event"",""trial"",""time""
""fullscreenenter"",""0"",""4360""
","""event"",""trial"",""time""
""fullscreenexit"",""49"",""336539""
","null","<p></p>","null","","","","","","","","","","","","","","","","","","","","","","",""
"","do_trial","112","565630","0.0-66.0-0.0","""event"",""trial"",""time""
""fullscreenenter"",""0"",""4360""
""fullscreenexit"",""49"",""336539""
","
","
","""event"",""trial"",""time""
""fullscreenenter"",""0"",""4360""
","""event"",""trial"",""time""
""fullscreenexit"",""49"",""336539""
","946.8999999999069","","","","","","","","50","1,0,0","0","mountain","9","probe-102","0.353278788782113","0.22564256534539628","0.05318055828433559","0","","","","","","","",""
"","html-keyboard-response","113","566637","0.0-66.0-1.0","""event"",""trial"",""time""
""fullscreenenter"",""0"",""4360""
""fullscreenexit"",""49"",""336539""
","
","
","""event"",""trial"",""time""
""fullscreenenter"",""0"",""4360""
","""event"",""trial"",""time""
""fullscreenexit"",""49"",""336539""
","null","<p></p>","null","","","","","","","","","","","","","","","","","","","","","","",""
"","do_trial","114","572200","0.0-67.0-0.0","""event"",""trial"",""time""
""fullscreenenter"",""0"",""4360""
""fullscreenexit"",""49"",""336539""
","
","
","""event"",""trial"",""time""
""fullscreenenter"",""0"",""4360""
","""event"",""trial"",""time""
""fullscreenexit"",""49"",""336539""
","952.3999999999069","","","","","","","","51","1,0,0","0","mountain","10","probe-48","0.36671695704109497","0.12247647385400935","0.2075545532919216","0","","","","","","","",""
"","html-keyboard-response","115","573210","0.0-67.0-1.0","""event"",""trial"",""time""
""fullscreenenter"",""0"",""4360""
""fullscreenexit"",""49"",""336539""
","
","
","""event"",""trial"",""time""
""fullscreenenter"",""0"",""4360""
","""event"",""trial"",""time""
""fullscreenexit"",""49"",""336539""
","null","<p></p>","null","","","","","","","","","","","","","","","","","","","","","","",""
"","do_trial","116","578223","0.0-68.0-0.0","""event"",""trial"",""time""
""fullscreenenter"",""0"",""4360""
""fullscreenexit"",""49"",""336539""
","
","
","""event"",""trial"",""time""
""fullscreenenter"",""0"",""4360""
","""event"",""trial"",""time""
""fullscreenexit"",""49"",""336539""
","406","","","","","","","","49","1,0,1","0","mountain","11","probe-159","0.524352826058855","0.3103296024359756","0.33045917178461176","1","","","","","","","",""
"","html-keyboard-response","117","579228","0.0-68.0-1.0","""event"",""trial"",""time""
""fullscreenenter"",""0"",""4360""
""fullscreenexit"",""49"",""336539""
","
","
","""event"",""trial"",""time""
""fullscreenenter"",""0"",""4360""
","""event"",""trial"",""time""
""fullscreenexit"",""49"",""336539""
","null","<p></p>","null","","","","","","","","","","","","","","","","","","","","","","",""
"","do_trial","118","584806","0.0-69.0-0.0","""event"",""trial"",""time""
""fullscreenenter"",""0"",""4360""
""fullscreenexit"",""49"",""336539""
","
","
","""event"",""trial"",""time""
""fullscreenenter"",""0"",""4360""
","""event"",""trial"",""time""
""fullscreenexit"",""49"",""336539""
","963.6999999997206","","","","","","","","49","0,0,0","0","mountain","12","probe-117","0.49898145860038806","0.22402173377686982","0.18373081719176035","0","","","","","","","",""
"","html-keyboard-response","119","585813","0.0-69.0-1.0","""event"",""trial"",""time""
""fullscreenenter"",""0"",""4360""
""fullscreenexit"",""49"",""336539""
","
","
","""event"",""trial"",""time""
""fullscreenenter"",""0"",""4360""
","""event"",""trial"",""time""
""fullscreenexit"",""49"",""336539""
","null","<p></p>","null","","","","","","","","","","","","","","","","","","","","","","",""
"","do_trial","120","591057","0.0-70.0-0.0","""event"",""trial"",""time""
""fullscreenenter"",""0"",""4360""
""fullscreenexit"",""49"",""336539""
","
","
","""event"",""trial"",""time""
""fullscreenenter"",""0"",""4360""
","""event"",""trial"",""time""
""fullscreenexit"",""49"",""336539""
","636.5","","","","","","","","50","1,0,0","0","mountain","13","probe-34","0.5752634233245594","0.4169907229896898","0.10629190984660973","0","","","","","","","",""
"","html-keyboard-response","121","592065","0.0-70.0-1.0","""event"",""trial"",""time""
""fullscreenenter"",""0"",""4360""
""fullscreenexit"",""49"",""336539""
","
","
","""event"",""trial"",""time""
""fullscreenenter"",""0"",""4360""
","""event"",""trial"",""time""
""fullscreenexit"",""49"",""336539""
","null","<p></p>","null","","","","","","","","","","","","","","","","","","","","","","",""
"","do_trial","122","597546","0.0-71.0-0.0","""event"",""trial"",""time""
""fullscreenenter"",""0"",""4360""
""fullscreenexit"",""49"",""336539""
","
","
","""event"",""trial"",""time""
""fullscreenenter"",""0"",""4360""
","""event"",""trial"",""time""
""fullscreenexit"",""49"",""336539""
","869.8000000002794","","","","","","","","51","0,1,0","0","mountain","14","probe-58","0.5600335695635156","0.4461198421662243","0.10941084923919711","0","","","","","","","",""
"","html-keyboard-response","123","598553","0.0-71.0-1.0","""event"",""trial"",""time""
""fullscreenenter"",""0"",""4360""
""fullscreenexit"",""49"",""336539""
","
","
","""event"",""trial"",""time""
""fullscreenenter"",""0"",""4360""
","""event"",""trial"",""time""
""fullscreenexit"",""49"",""336539""
","null","<p></p>","null","","","","","","","","","","","","","","","","","","","","","","",""
"","do_trial","124","604105","0.0-72.0-0.0","""event"",""trial"",""time""
""fullscreenenter"",""0"",""4360""
""fullscreenexit"",""49"",""336539""
","
","
","""event"",""trial"",""time""
""fullscreenenter"",""0"",""4360""
","""event"",""trial"",""time""
""fullscreenexit"",""49"",""336539""
","942.6000000000931","","","","","","","","49","0,1,0","0","mountain","15","probe-88","0.5246872139190352","0.44335466033607945","0.06340000757275815","0","","","","","","","",""
"","html-keyboard-response","125","605113","0.0-72.0-1.0","""event"",""trial"",""time""
""fullscreenenter"",""0"",""4360""
""fullscreenexit"",""49"",""336539""
","
","
","""event"",""trial"",""time""
""fullscreenenter"",""0"",""4360""
","""event"",""trial"",""time""
""fullscreenexit"",""49"",""336539""
","null","<p></p>","null","","","","","","","","","","","","","","","","","","","","","","",""
"","do_trial","126","610046","0.0-73.0-0.0","""event"",""trial"",""time""
""fullscreenenter"",""0"",""4360""
""fullscreenexit"",""49"",""336539""
","
","
","""event"",""trial"",""time""
""fullscreenenter"",""0"",""4360""
","""event"",""trial"",""time""
""fullscreenexit"",""49"",""336539""
","321.6999999997206","","","","","","","","49","1,0,0","0","mountain","16","probe-19","0.4514622585534297","0.2475458566851346","0.07125649586699515","1","","","","","","","",""
"","html-keyboard-response","127","611051","0.0-73.0-1.0","""event"",""trial"",""time""
""fullscreenenter"",""0"",""4360""
""fullscreenexit"",""49"",""336539""
","
","
","""event"",""trial"",""time""
""fullscreenenter"",""0"",""4360""
","""event"",""trial"",""time""
""fullscreenexit"",""49"",""336539""
","null","<p></p>","null","","","","","","","","","","","","","","","","","","","","","","",""
"","do_trial","128","617065","0.0-74.0-0.0","""event"",""trial"",""time""
""fullscreenenter"",""0"",""4360""
""fullscreenexit"",""49"",""336539""
","
","
","""event"",""trial"",""time""
""fullscreenenter"",""0"",""4360""
","""event"",""trial"",""time""
""fullscreenexit"",""49"",""336539""
","1405.0999999996275","","","","","","","","49","1,0,0","0","mountain","17","probe-212","0.5970632716745131","0.2382487210890462","0.09916365200016962","1","","","","","","","",""
"","html-keyboard-response","129","618071","0.0-74.0-1.0","""event"",""trial"",""time""
""fullscreenenter"",""0"",""4360""
""fullscreenexit"",""49"",""336539""
","
","
","""event"",""trial"",""time""
""fullscreenenter"",""0"",""4360""
","""event"",""trial"",""time""
""fullscreenexit"",""49"",""336539""
","null","<p></p>","null","","","","","","","","","","","","","","","","","","","","","","",""
"","do_trial","130","623832","0.0-75.0-0.0","""event"",""trial"",""time""
""fullscreenenter"",""0"",""4360""
""fullscreenexit"",""49"",""336539""
","
","
","""event"",""trial"",""time""
""fullscreenenter"",""0"",""4360""
","""event"",""trial"",""time""
""fullscreenexit"",""49"",""336539""
","1154.2999999998137","","","","","","","","49","0,0,1","0","mountain","18","probe-104","0.622829657568107","0.15943411777225147","0.17013923481238238","0","","","","","","","",""
"","html-keyboard-response","131","624840","0.0-75.0-1.0","""event"",""trial"",""time""
""fullscreenenter"",""0"",""4360""
""fullscreenexit"",""49"",""336539""
","
","
","""event"",""trial"",""time""
""fullscreenenter"",""0"",""4360""
","""event"",""trial"",""time""
""fullscreenexit"",""49"",""336539""
","null","<p></p>","null","","","","","","","","","","","","","","","","","","","","","","",""
"","do_trial","132","630110","0.0-76.0-0.0","""event"",""trial"",""time""
""fullscreenenter"",""0"",""4360""
""fullscreenexit"",""49"",""336539""
","
","
","""event"",""trial"",""time""
""fullscreenenter"",""0"",""4360""
","""event"",""trial"",""time""
""fullscreenexit"",""49"",""336539""
","661.2999999998137","","","","","","","","50","0,0,0","0","mountain","19","probe-82","0.49926803415283294","0.14598555456326387","0.09257135724457573","0","","","","","","","",""
"","html-keyboard-response","133","631119","0.0-76.0-1.0","""event"",""trial"",""time""
""fullscreenenter"",""0"",""4360""
""fullscreenexit"",""49"",""336539""
","
","
","""event"",""trial"",""time""
""fullscreenenter"",""0"",""4360""
","""event"",""trial"",""time""
""fullscreenexit"",""49"",""336539""
","null","<p></p>","null","","","","","","","","","","","","","","","","","","","","","","",""
"","do_trial","134","636635","0.0-77.0-0.0","""event"",""trial"",""time""
""fullscreenenter"",""0"",""4360""
""fullscreenexit"",""49"",""336539""
","
","
","""event"",""trial"",""time""
""fullscreenenter"",""0"",""4360""
","""event"",""trial"",""time""
""fullscreenexit"",""49"",""336539""
","903.1000000000931","","","","","","","","51","1,0,0","0","mountain","20","probe-151","0.39077695748621644","0.1897420599823839","0.18270548892594016","0","","","","","","","",""
"","html-keyboard-response","135","637641","0.0-77.0-1.0","""event"",""trial"",""time""
""fullscreenenter"",""0"",""4360""
""fullscreenexit"",""49"",""336539""
","
","
","""event"",""trial"",""time""
""fullscreenenter"",""0"",""4360""
","""event"",""trial"",""time""
""fullscreenexit"",""49"",""336539""
","null","<p></p>","null","","","","","","","","","","","","","","","","","","","","","","",""
"","do_trial","136","643067","0.0-78.0-0.0","""event"",""trial"",""time""
""fullscreenenter"",""0"",""4360""
""fullscreenexit"",""49"",""336539""
","
","
","""event"",""trial"",""time""
""fullscreenenter"",""0"",""4360""
","""event"",""trial"",""time""
""fullscreenexit"",""49"",""336539""
","815.7999999998137","","","","","","","","49","0,0,0","0","mountain","21","probe-90","0.47599680737313194","0.22829901392006302","0.07592014988552989","0","","","","","","","",""
"","html-keyboard-response","137","644073","0.0-78.0-1.0","""event"",""trial"",""time""
""fullscreenenter"",""0"",""4360""
""fullscreenexit"",""49"",""336539""
","
","
","""event"",""trial"",""time""
""fullscreenenter"",""0"",""4360""
","""event"",""trial"",""time""
""fullscreenexit"",""49"",""336539""
","null","<p></p>","null","","","","","","","","","","","","","","","","","","","","","","",""
"","do_trial","138","649673","0.0-79.0-0.0","""event"",""trial"",""time""
""fullscreenenter"",""0"",""4360""
""fullscreenexit"",""49"",""336539""
","
","
","""event"",""trial"",""time""
""fullscreenenter"",""0"",""4360""
","""event"",""trial"",""time""
""fullscreenexit"",""49"",""336539""
","994.3999999999069","","","","","","","","50","1,1,0","0","mountain","22","probe-115","0.5937708372059273","0.15136834371556707","0.1676159077896101","1","","","","","","","",""
"","html-keyboard-response","139","650677","0.0-79.0-1.0","""event"",""trial"",""time""
""fullscreenenter"",""0"",""4360""
""fullscreenexit"",""49"",""336539""
","
","
","""event"",""trial"",""time""
""fullscreenenter"",""0"",""4360""
","""event"",""trial"",""time""
""fullscreenexit"",""49"",""336539""
","null","<p></p>","null","","","","","","","","","","","","","","","","","","","","","","",""
"","do_trial","140","656086","0.0-80.0-0.0","""event"",""trial"",""time""
""fullscreenenter"",""0"",""4360""
""fullscreenexit"",""49"",""336539""
","
","
","""event"",""trial"",""time""
""fullscreenenter"",""0"",""4360""
","""event"",""trial"",""time""
""fullscreenexit"",""49"",""336539""
","807.3999999999069","","","","","","","","50","1,0,0","0","mountain","23","probe-162","0.5449865629360139","0.4184667943151199","0.1316990230696021","0","","","","","","","",""
"","html-keyboard-response","141","657090","0.0-80.0-1.0","""event"",""trial"",""time""
""fullscreenenter"",""0"",""4360""
""fullscreenexit"",""49"",""336539""
","
","
","""event"",""trial"",""time""
""fullscreenenter"",""0"",""4360""
","""event"",""trial"",""time""
""fullscreenexit"",""49"",""336539""
","null","<p></p>","null","","","","","","","","","","","","","","","","","","","","","","",""
"","do_trial","142","662581","0.0-81.0-0.0","""event"",""trial"",""time""
""fullscreenenter"",""0"",""4360""
""fullscreenexit"",""49"",""336539""
","
","
","""event"",""trial"",""time""
""fullscreenenter"",""0"",""4360""
","""event"",""trial"",""time""
""fullscreenexit"",""49"",""336539""
","886.6000000000931","","","","","","","","49","1,1,0","0","mountain","24","probe-06","0.5910778463405615","0.4519417004703709","0.17159282985598664","1","","","","","","","",""
"","html-keyboard-response","143","663586","0.0-81.0-1.0","""event"",""trial"",""time""
""fullscreenenter"",""0"",""4360""
""fullscreenexit"",""49"",""336539""
","
","
","""event"",""trial"",""time""
""fullscreenenter"",""0"",""4360""
","""event"",""trial"",""time""
""fullscreenexit"",""49"",""336539""
","null","<p></p>","null","","","","","","","","","","","","","","","","","","","","","","",""
"","do_trial","144","669187","0.0-82.0-0.0","""event"",""trial"",""time""
""fullscreenenter"",""0"",""4360""
""fullscreenexit"",""49"",""336539""
","
","
","""event"",""trial"",""time""
""fullscreenenter"",""0"",""4360""
","""event"",""trial"",""time""
""fullscreenexit"",""49"",""336539""
","1003.1999999997206","","","","","","","","49","1,1,0","0","mountain","25","probe-119","0.6207831031084787","0.4097809036561608","0.11475395901647567","1","","","","","","","",""
"","html-keyboard-response","145","670193","0.0-82.0-1.0","""event"",""trial"",""time""
""fullscreenenter"",""0"",""4360""
""fullscreenexit"",""49"",""336539""
","
","
","""event"",""trial"",""time""
""fullscreenenter"",""0"",""4360""
","""event"",""trial"",""time""
""fullscreenexit"",""49"",""336539""
","null","<p></p>","null","","","","","","","","","","","","","","","","","","","","","","",""
"","do_trial","146","675504","0.0-83.0-0.0","""event"",""trial"",""time""
""fullscreenenter"",""0"",""4360""
""fullscreenexit"",""49"",""336539""
","
","
","""event"",""trial"",""time""
""fullscreenenter"",""0"",""4360""
","""event"",""trial"",""time""
""fullscreenexit"",""49"",""336539""
","706.3999999999069","","","","","","","","49","0,1,0","0","mountain","26","probe-65","0.5744458599733189","0.3924089485464875","0.12992404886139183","0","","","","","","","",""
"","html-keyboard-response","147","676511","0.0-83.0-1.0","""event"",""trial"",""time""
""fullscreenenter"",""0"",""4360""
""fullscreenexit"",""49"",""336539""
","
","
","""event"",""trial"",""time""
""fullscreenenter"",""0"",""4360""
","""event"",""trial"",""time""
""fullscreenexit"",""49"",""336539""
","null","<p></p>","null","","","","","","","","","","","","","","","","","","","","","","",""
"","do_trial","148","681952","0.0-84.0-0.0","""event"",""trial"",""time""
""fullscreenenter"",""0"",""4360""
""fullscreenexit"",""49"",""336539""
","
","
","""event"",""trial"",""time""
""fullscreenenter"",""0"",""4360""
","""event"",""trial"",""time""
""fullscreenexit"",""49"",""336539""
","844.2000000001863","","","","","","","","50","0,1,0","0","mountain","27","probe-124","0.5964418697177607","0.4327729905808446","0.16426633249528177","1","","","","","","","",""
"","html-keyboard-response","149","682960","0.0-84.0-1.0","""event"",""trial"",""time""
""fullscreenenter"",""0"",""4360""
""fullscreenexit"",""49"",""336539""
","
","
","""event"",""trial"",""time""
""fullscreenenter"",""0"",""4360""
","""event"",""trial"",""time""
""fullscreenexit"",""49"",""336539""
","null","<p></p>","null","","","","","","","","","","","","","","","","","","","","","","",""
"","do_trial","150","688545","0.0-85.0-0.0","""event"",""trial"",""time""
""fullscreenenter"",""0"",""4360""
""fullscreenexit"",""49"",""336539""
","
","
","""event"",""trial"",""time""
""fullscreenenter"",""0"",""4360""
","""event"",""trial"",""time""
""fullscreenexit"",""49"",""336539""
","967.1999999997206","","","","","","","","50","0,0,1","0","mountain","28","probe-20","0.576735240254829","0.3953748812521031","0.09109231780247593","0","","","","","","","",""
"","html-keyboard-response","151","689552","0.0-85.0-1.0","""event"",""trial"",""time""
""fullscreenenter"",""0"",""4360""
""fullscreenexit"",""49"",""336539""
","
","
","""event"",""trial"",""time""
""fullscreenenter"",""0"",""4360""
","""event"",""trial"",""time""
""fullscreenexit"",""49"",""336539""
","null","<p></p>","null","","","","","","","","","","","","","","","","","","","","","","",""
"","do_trial","152","695209","0.0-86.0-0.0","""event"",""trial"",""time""
""fullscreenenter"",""0"",""4360""
""fullscreenexit"",""49"",""336539""
","
","
","""event"",""trial"",""time""
""fullscreenenter"",""0"",""4360""
","""event"",""trial"",""time""
""fullscreenexit"",""49"",""336539""
","1048.3999999999069","","","","","","","","49","1,0,0","0","mountain","29","probe-199","0.6153356719497449","0.4021972114650852","0.07666363046740331","1","","","","","","","",""
"","html-keyboard-response","153","696213","0.0-86.0-1.0","""event"",""trial"",""time""
""fullscreenenter"",""0"",""4360""
""fullscreenexit"",""49"",""336539""
","
","
","""event"",""trial"",""time""
""fullscreenenter"",""0"",""4360""
","""event"",""trial"",""time""
""fullscreenexit"",""49"",""336539""
","null","<p></p>","null","","","","","","","","","","","","","","","","","","","","","","",""
"","do_bye","154","697731","0.0-87.0-0.0","""event"",""trial"",""time""
""fullscreenenter"",""0"",""4360""
""fullscreenexit"",""49"",""336539""
","
","
","""event"",""trial"",""time""
""fullscreenenter"",""0"",""4360""
","""event"",""trial"",""time""
""fullscreenexit"",""49"",""336539""
","null","","","","","","","","null","","","","","","","","","","","","","","","","",""
"","break","155","700562","0.0-87.0-1.0","""event"",""trial"",""time""
""fullscreenenter"",""0"",""4360""
""fullscreenexit"",""49"",""336539""
","
","
","""event"",""trial"",""time""
""fullscreenenter"",""0"",""4360""
","""event"",""trial"",""time""
""fullscreenexit"",""49"",""336539""
","2824.7000000001863","<div class='center'><p>Time to take a quick break! You have 2 minutes to rest, but you can move on sooner if you'd like.</p><p> Press the <b>space bar</b> to continue.</p></div>","32","","","","","","","","","","","","","","","","","","","","","","",""
"","do_travel","156","709575","0.0-88.0-0.0","""event"",""trial"",""time""
""fullscreenenter"",""0"",""4360""
""fullscreenexit"",""49"",""336539""
","
","
","""event"",""trial"",""time""
""fullscreenenter"",""0"",""4360""
","""event"",""trial"",""time""
""fullscreenexit"",""49"",""336539""
","null","","","","","","","","null","","","","","","","","","","","","","","","","",""
"","do_welcome","157","713606","0.0-88.0-1.0","""event"",""trial"",""time""
""fullscreenenter"",""0"",""4360""
""fullscreenexit"",""49"",""336539""
","
","
","""event"",""trial"",""time""
""fullscreenenter"",""0"",""4360""
","""event"",""trial"",""time""
""fullscreenexit"",""49"",""336539""
","null","","","","","","","","null","","","","","","","","","","","","","","","","",""
"","do_trial","158","719346","0.0-89.0-0.0","""event"",""trial"",""time""
""fullscreenenter"",""0"",""4360""
""fullscreenexit"",""49"",""336539""
","
","
","""event"",""trial"",""time""
""fullscreenenter"",""0"",""4360""
","""event"",""trial"",""time""
""fullscreenexit"",""49"",""336539""
","1124.3000000002794","","","","","","","","49","1,0,0","1","forest","30","probe-160","1","0.31494107849693154","0.14345404040213264","1","","","","","","","",""
"","html-keyboard-response","159","720351","0.0-89.0-1.0","""event"",""trial"",""time""
""fullscreenenter"",""0"",""4360""
""fullscreenexit"",""49"",""336539""
","
","
","""event"",""trial"",""time""
""fullscreenenter"",""0"",""4360""
","""event"",""trial"",""time""
""fullscreenexit"",""49"",""336539""
","null","<p></p>","null","","","","","","","","","","","","","","","","","","","","","","",""
"","do_trial","160","725290","0.0-90.0-0.0","""event"",""trial"",""time""
""fullscreenenter"",""0"",""4360""
""fullscreenexit"",""49"",""336539""
","
","
","""event"",""trial"",""time""
""fullscreenenter"",""0"",""4360""
","""event"",""trial"",""time""
""fullscreenexit"",""49"",""336539""
","339.59999999962747","","","","","","","","50","1,1,0","1","forest","31","probe-216","1","0.260966842389489","0.15789864958267252","1","","","","","","","",""
"","html-keyboard-response","161","726297","0.0-90.0-1.0","""event"",""trial"",""time""
""fullscreenenter"",""0"",""4360""
""fullscreenexit"",""49"",""336539""
","
","
","""event"",""trial"",""time""
""fullscreenenter"",""0"",""4360""
","""event"",""trial"",""time""
""fullscreenexit"",""49"",""336539""
","null","<p></p>","null","","","","","","","","","","","","","","","","","","","","","","",""
"","do_trial","162","731456","0.0-91.0-0.0","""event"",""trial"",""time""
""fullscreenenter"",""0"",""4360""
""fullscreenexit"",""49"",""336539""
","
","
","""event"",""trial"",""time""
""fullscreenenter"",""0"",""4360""
","""event"",""trial"",""time""
""fullscreenexit"",""49"",""336539""
","553.9000000003725","","","","","","","","51","1,0,0","1","forest","32","probe-66","1","0.26295234748088425","0.05767366304888133","0","","","","","","","",""
"","html-keyboard-response","163","732462","0.0-91.0-1.0","""event"",""trial"",""time""
""fullscreenenter"",""0"",""4360""
""fullscreenexit"",""49"",""336539""
","
","
","""event"",""trial"",""time""
""fullscreenenter"",""0"",""4360""
","""event"",""trial"",""time""
""fullscreenexit"",""49"",""336539""
","null","<p></p>","null","","","","","","","","","","","","","","","","","","","","","","",""
"","do_trial","164","737377","0.0-92.0-0.0","""event"",""trial"",""time""
""fullscreenenter"",""0"",""4360""
""fullscreenexit"",""49"",""336539""
","
","
","""event"",""trial"",""time""
""fullscreenenter"",""0"",""4360""
","""event"",""trial"",""time""
""fullscreenexit"",""49"",""336539""
","310.5","","","","","","","","50","0,0,0","1","forest","33","probe-72","0.8539268645499067","0.3072802291444659","0.11547285024227283","0","","","","","","","",""
"","html-keyboard-response","165","738387","0.0-92.0-1.0","""event"",""trial"",""time""
""fullscreenenter"",""0"",""4360""
""fullscreenexit"",""49"",""336539""
","
","
","""event"",""trial"",""time""
""fullscreenenter"",""0"",""4360""
","""event"",""trial"",""time""
""fullscreenexit"",""49"",""336539""
","null","<p></p>","null","","","","","","","","","","","","","","","","","","","","","","",""
"","do_trial","166","743284","0.0-93.0-0.0","""event"",""trial"",""time""
""fullscreenenter"",""0"",""4360""
""fullscreenexit"",""49"",""336539""
","
","
","""event"",""trial"",""time""
""fullscreenenter"",""0"",""4360""
","""event"",""trial"",""time""
""fullscreenexit"",""49"",""336539""
","289.89999999990687","","","","","","","","49","1,0,0","1","forest","34","probe-29","0.8224504402884881","0.22271399928251484","0.08671018970880807","1","","","","","","","",""
"","html-keyboard-response","167","744291","0.0-93.0-1.0","""event"",""trial"",""time""
""fullscreenenter"",""0"",""4360""
""fullscreenexit"",""49"",""336539""
","
","
","""event"",""trial"",""time""
""fullscreenenter"",""0"",""4360""
","""event"",""trial"",""time""
""fullscreenexit"",""49"",""336539""
","null","<p></p>","null","","","","","","","","","","","","","","","","","","","","","","",""
"","do_trial","168","749294","0.0-94.0-0.0","""event"",""trial"",""time""
""fullscreenenter"",""0"",""4360""
""fullscreenexit"",""49"",""336539""
","
","
","""event"",""trial"",""time""
""fullscreenenter"",""0"",""4360""
","""event"",""trial"",""time""
""fullscreenexit"",""49"",""336539""
","392.90000000037253","","","","","","","","51","0,1,0","1","forest","35","probe-21","0.665943718869847","0.23698583357929795","0.12665500089235138","0","","","","","","","",""
"","html-keyboard-response","169","750300","0.0-94.0-1.0","""event"",""trial"",""time""
""fullscreenenter"",""0"",""4360""
""fullscreenexit"",""49"",""336539""
","
","
","""event"",""trial"",""time""
""fullscreenenter"",""0"",""4360""
","""event"",""trial"",""time""
""fullscreenexit"",""49"",""336539""
","null","<p></p>","null","","","","","","","","","","","","","","","","","","","","","","",""
"","do_trial","170","755295","0.0-95.0-0.0","""event"",""trial"",""time""
""fullscreenenter"",""0"",""4360""
""fullscreenexit"",""49"",""336539""
","
","
","""event"",""trial"",""time""
""fullscreenenter"",""0"",""4360""
","""event"",""trial"",""time""
""fullscreenexit"",""49"",""336539""
","391.59999999962747","","","","","","","","49","0,1,0","1","forest","36","probe-27","0.6227045558033331","0.36522042283139416","0.08417003082420048","0","","","","","","","",""
"","html-keyboard-response","171","756304","0.0-95.0-1.0","""event"",""trial"",""time""
""fullscreenenter"",""0"",""4360""
""fullscreenexit"",""49"",""336539""
","
","
","""event"",""trial"",""time""
""fullscreenenter"",""0"",""4360""
","""event"",""trial"",""time""
""fullscreenexit"",""49"",""336539""
","null","<p></p>","null","","","","","","","","","","","","","","","","","","","","","","",""
"","do_trial","172","761264","0.0-96.0-0.0","""event"",""trial"",""time""
""fullscreenenter"",""0"",""4360""
""fullscreenexit"",""49"",""336539""
","
","
","""event"",""trial"",""time""
""fullscreenenter"",""0"",""4360""
","""event"",""trial"",""time""
""fullscreenexit"",""49"",""336539""
","353.60000000009313","","","","","","","","49","1,0,0","1","forest","37","probe-61","0.4614475313358294","0.2888192901426215","0.057576753407466964","1","","","","","","","",""
"","html-keyboard-response","173","762269","0.0-96.0-1.0","""event"",""trial"",""time""
""fullscreenenter"",""0"",""4360""
""fullscreenexit"",""49"",""336539""
","
","
","""event"",""trial"",""time""
""fullscreenenter"",""0"",""4360""
","""event"",""trial"",""time""
""fullscreenexit"",""49"",""336539""
","null","<p></p>","null","","","","","","","","","","","","","","","","","","","","","","",""
"","do_trial","174","767403","0.0-97.0-0.0","""event"",""trial"",""time""
""fullscreenenter"",""0"",""4360""
""fullscreenexit"",""49"",""336539""
","
","
","""event"",""trial"",""time""
""fullscreenenter"",""0"",""4360""
","""event"",""trial"",""time""
""fullscreenexit"",""49"",""336539""
","522.2000000001863","","","","","","","","49","0,0,0","1","forest","38","probe-217","0.5055360478999354","0.2551411175905408","0.1826144455923642","0","","","","","","","",""
"","html-keyboard-response","175","768408","0.0-97.0-1.0","""event"",""trial"",""time""
""fullscreenenter"",""0"",""4360""
""fullscreenexit"",""49"",""336539""
","
","
","""event"",""trial"",""time""
""fullscreenenter"",""0"",""4360""
","""event"",""trial"",""time""
""fullscreenexit"",""49"",""336539""
","null","<p></p>","null","","","","","","","","","","","","","","","","","","","","","","",""
"","do_trial","176","773433","0.0-98.0-0.0","""event"",""trial"",""time""
""fullscreenenter"",""0"",""4360""
""fullscreenexit"",""49"",""336539""
","
","
","""event"",""trial"",""time""
""fullscreenenter"",""0"",""4360""
","""event"",""trial"",""time""
""fullscreenexit"",""49"",""336539""
","422.3000000002794","","","","","","","","50","0,0,0","1","forest","39","probe-206","0.6526453351631731","0.4134261646368668","0.10108242868346043","0","","","","","","","",""
"","html-keyboard-response","177","774441","0.0-98.0-1.0","""event"",""trial"",""time""
""fullscreenenter"",""0"",""4360""
""fullscreenexit"",""49"",""336539""
","
","
","""event"",""trial"",""time""
""fullscreenenter"",""0"",""4360""
","""event"",""trial"",""time""
""fullscreenexit"",""49"",""336539""
","null","<p></p>","null","","","","","","","","","","","","","","","","","","","","","","",""
"","do_trial","178","779280","0.0-99.0-0.0","""event"",""trial"",""time""
""fullscreenenter"",""0"",""4360""
""fullscreenexit"",""49"",""336539""
","
","
","""event"",""trial"",""time""
""fullscreenenter"",""0"",""4360""
","""event"",""trial"",""time""
""fullscreenexit"",""49"",""336539""
","229","","","","","","","","49","1,1,0","1","forest","40","probe-144","0.6444740571133499","0.4528715881105517","0.17497009330304814","1","","","","","","","",""
"","html-keyboard-response","179","780287","0.0-99.0-1.0","""event"",""trial"",""time""
""fullscreenenter"",""0"",""4360""
""fullscreenexit"",""49"",""336539""
","
","
","""event"",""trial"",""time""
""fullscreenenter"",""0"",""4360""
","""event"",""trial"",""time""
""fullscreenexit"",""49"",""336539""
","null","<p></p>","null","","","","","","","","","","","","","","","","","","","","","","",""
"","do_trial","180","785503","0.0-100.0-0.0","""event"",""trial"",""time""
""fullscreenenter"",""0"",""4360""
""fullscreenexit"",""49"",""336539""
","
","
","""event"",""trial"",""time""
""fullscreenenter"",""0"",""4360""
","""event"",""trial"",""time""
""fullscreenexit"",""49"",""336539""
","615.7000000001863","","","","","","","","49","0,0,1","1","forest","41","probe-126","0.6654414302469702","0.4165047397987234","0.27305033861008554","0","","","","","","","",""
"","html-keyboard-response","181","786510","0.0-100.0-1.0","""event"",""trial"",""time""
""fullscreenenter"",""0"",""4360""
""fullscreenexit"",""49"",""336539""
","
","
","""event"",""trial"",""time""
""fullscreenenter"",""0"",""4360""
","""event"",""trial"",""time""
""fullscreenexit"",""49"",""336539""
","null","<p></p>","null","","","","","","","","","","","","","","","","","","","","","","",""
"","do_trial","182","791494","0.0-101.0-0.0","""event"",""trial"",""time""
""fullscreenenter"",""0"",""4360""
""fullscreenexit"",""49"",""336539""
","
","
","""event"",""trial"",""time""
""fullscreenenter"",""0"",""4360""
","""event"",""trial"",""time""
""fullscreenexit"",""49"",""336539""
","376.5","","","","","","","","50","1,0,0","1","forest","42","probe-99","0.3643854788919876","0.489438513207666","0.3359883668685286","0","","","","","","","",""
"","html-keyboard-response","183","792501","0.0-101.0-1.0","""event"",""trial"",""time""
""fullscreenenter"",""0"",""4360""
""fullscreenexit"",""49"",""336539""
","
","
","""event"",""trial"",""time""
""fullscreenenter"",""0"",""4360""
","""event"",""trial"",""time""
""fullscreenexit"",""49"",""336539""
","null","<p></p>","null","","","","","","","","","","","","","","","","","","","","","","",""
"","do_trial","184","797447","0.0-102.0-0.0","""event"",""trial"",""time""
""fullscreenenter"",""0"",""4360""
""fullscreenexit"",""49"",""336539""
","
","
","""event"",""trial"",""time""
""fullscreenenter"",""0"",""4360""
","""event"",""trial"",""time""
""fullscreenexit"",""49"",""336539""
","337.10000000009313","","","","","","","","49","1,0,0","1","forest","43","probe-14","0.20853804717809726","0.4040958666602792","0.4694540671570706","1","","","","","","","",""
"","html-keyboard-response","185","798455","0.0-102.0-1.0","""event"",""trial"",""time""
""fullscreenenter"",""0"",""4360""
""fullscreenexit"",""49"",""336539""
","
","
","""event"",""trial"",""time""
""fullscreenenter"",""0"",""4360""
","""event"",""trial"",""time""
""fullscreenexit"",""49"",""336539""
","null","<p></p>","null","","","","","","","","","","","","","","","","","","","","","","",""
"","do_trial","186","803909","0.0-103.0-0.0","""event"",""trial"",""time""
""fullscreenenter"",""0"",""4360""
""fullscreenexit"",""49"",""336539""
","
","
","""event"",""trial"",""time""
""fullscreenenter"",""0"",""4360""
","""event"",""trial"",""time""
""fullscreenexit"",""49"",""336539""
","845.2999999998137","","","","","","","","49","0,0,1","1","forest","44","probe-143","0.2579167298965968","0.49207176783864226","0.6537655820204482","0","","","","","","","",""
"","html-keyboard-response","187","804917","0.0-103.0-1.0","""event"",""trial"",""time""
""fullscreenenter"",""0"",""4360""
""fullscreenexit"",""49"",""336539""
","
","
","""event"",""trial"",""time""
""fullscreenenter"",""0"",""4360""
","""event"",""trial"",""time""
""fullscreenexit"",""49"",""336539""
","null","<p></p>","null","","","","","","","","","","","","","","","","","","","","","","",""
"","do_trial","188","810075","0.0-104.0-0.0","""event"",""trial"",""time""
""fullscreenenter"",""0"",""4360""
""fullscreenexit"",""49"",""336539""
","
","
","""event"",""trial"",""time""
""fullscreenenter"",""0"",""4360""
","""event"",""trial"",""time""
""fullscreenexit"",""49"",""336539""
","548.8999999999069","","","","","","","","49","0,0,1","1","forest","45","probe-189","0.10015310761003716","0.4307355449112451","0.520673190236266","0","","","","","","","",""
"","html-keyboard-response","189","811080","0.0-104.0-1.0","""event"",""trial"",""time""
""fullscreenenter"",""0"",""4360""
""fullscreenexit"",""49"",""336539""
","
","
","""event"",""trial"",""time""
""fullscreenenter"",""0"",""4360""
","""event"",""trial"",""time""
""fullscreenexit"",""49"",""336539""
","null","<p></p>","null","","","","","","","","","","","","","","","","","","","","","","",""
"","do_trial","190","816187","0.0-105.0-0.0","""event"",""trial"",""time""
""fullscreenenter"",""0"",""4360""
""fullscreenexit"",""49"",""336539""
","
","
","""event"",""trial"",""time""
""fullscreenenter"",""0"",""4360""
","""event"",""trial"",""time""
""fullscreenexit"",""49"",""336539""
","504.20000000018626","","","","","","","","49","0,1,0","1","forest","46","probe-154","0.19139647979981295","0.43737556809342515","0.4670801889938271","0","","","","","","","",""
"","html-keyboard-response","191","817192","0.0-105.0-1.0","""event"",""trial"",""time""
""fullscreenenter"",""0"",""4360""
""fullscreenexit"",""49"",""336539""
","
","
","""event"",""trial"",""time""
""fullscreenenter"",""0"",""4360""
","""event"",""trial"",""time""
""fullscreenexit"",""49"",""336539""
","null","<p></p>","null","","","","","","","","","","","","","","","","","","","","","","",""
"","do_trial","192","822165","0.0-106.0-0.0","""event"",""trial"",""time""
""fullscreenenter"",""0"",""4360""
""fullscreenexit"",""49"",""336539""
","
","
","""event"",""trial"",""time""
""fullscreenenter"",""0"",""4360""
","""event"",""trial"",""time""
""fullscreenexit"",""49"",""336539""
","369.79999999981374","","","","","","","","49","1,0,1","1","forest","47","probe-23","0.4085775147739053","0.3161725492497261","0.6365563805043596","1","","","","","","","",""
"","html-keyboard-response","193","823170","0.0-106.0-1.0","""event"",""trial"",""time""
""fullscreenenter"",""0"",""4360""
""fullscreenexit"",""49"",""336539""
","
","
","""event"",""trial"",""time""
""fullscreenenter"",""0"",""4360""
","""event"",""trial"",""time""
""fullscreenexit"",""49"",""336539""
","null","<p></p>","null","","","","","","","","","","","","","","","","","","","","","","",""
"","do_trial","194","828607","0.0-107.0-0.0","""event"",""trial"",""time""
""fullscreenenter"",""0"",""4360""
""fullscreenexit"",""49"",""336539""
","
","
","""event"",""trial"",""time""
""fullscreenenter"",""0"",""4360""
","""event"",""trial"",""time""
""fullscreenexit"",""49"",""336539""
","831.6999999997206","","","","","","","","49","0,0,1","1","forest","48","probe-26","0.5099642724629696","0.25464372120462","0.5525068797137854","0","","","","","","","",""
"","html-keyboard-response","195","829617","0.0-107.0-1.0","""event"",""trial"",""time""
""fullscreenenter"",""0"",""4360""
""fullscreenexit"",""49"",""336539""
","
","
","""event"",""trial"",""time""
""fullscreenenter"",""0"",""4360""
","""event"",""trial"",""time""
""fullscreenexit"",""49"",""336539""
","null","<p></p>","null","","","","","","","","","","","","","","","","","","","","","","",""
"","do_trial","196","834695","0.0-108.0-0.0","""event"",""trial"",""time""
""fullscreenenter"",""0"",""4360""
""fullscreenexit"",""49"",""336539""
","
","
","""event"",""trial"",""time""
""fullscreenenter"",""0"",""4360""
","""event"",""trial"",""time""
""fullscreenexit"",""49"",""336539""
","471.6999999997206","","","","","","","","51","0,0,1","1","forest","49","probe-36","0.45306303838394996","0.31860338973689223","0.49087493177101577","1","","","","","","","",""
"","html-keyboard-response","197","835700","0.0-108.0-1.0","""event"",""trial"",""time""
""fullscreenenter"",""0"",""4360""
""fullscreenexit"",""49"",""336539""
","
","
","""event"",""trial"",""time""
""fullscreenenter"",""0"",""4360""
","""event"",""trial"",""time""
""fullscreenexit"",""49"",""336539""
","null","<p></p>","null","","","","","","","","","","","","","","","","","","","","","","",""
"","do_trial","198","840651","0.0-109.0-0.0","""event"",""trial"",""time""
""fullscreenenter"",""0"",""4360""
""fullscreenexit"",""49"",""336539""
","
","
","""event"",""trial"",""time""
""fullscreenenter"",""0"",""4360""
","""event"",""trial"",""time""
""fullscreenexit"",""49"",""336539""
","345.3000000002794","","","","","","","","51","0,1,1","1","forest","50","probe-57","0.394675699269538","0.4541061331176738","0.44180147136798953","1","","","","","","","",""
"","html-keyboard-response","199","841658","0.0-109.0-1.0","""event"",""trial"",""time""
""fullscreenenter"",""0"",""4360""
""fullscreenexit"",""49"",""336539""
","
","
","""event"",""trial"",""time""
""fullscreenenter"",""0"",""4360""
","""event"",""trial"",""time""
""fullscreenexit"",""49"",""336539""
","null","<p></p>","null","","","","","","","","","","","","","","","","","","","","","","",""
"","do_trial","200","846947","0.0-110.0-0.0","""event"",""trial"",""time""
""fullscreenenter"",""0"",""4360""
""fullscreenexit"",""49"",""336539""
","
","
","""event"",""trial"",""time""
""fullscreenenter"",""0"",""4360""
","""event"",""trial"",""time""
""fullscreenexit"",""49"",""336539""
","681.4000000003725","","","","","","","","51","0,1,1","1","forest","51","probe-219","0.22071987855891384","0.4667315907264556","0.4586130866324832","1","","","","","","","",""
"","html-keyboard-response","201","847955","0.0-110.0-1.0","""event"",""trial"",""time""
""fullscreenenter"",""0"",""4360""
""fullscreenexit"",""49"",""336539""
","
","
","""event"",""trial"",""time""
""fullscreenenter"",""0"",""4360""
","""event"",""trial"",""time""
""fullscreenexit"",""49"",""336539""
","null","<p></p>","null","","","","","","","","","","","","","","","","","","","","","","",""
"","do_trial","202","853025","0.0-111.0-0.0","""event"",""trial"",""time""
""fullscreenenter"",""0"",""4360""
""fullscreenexit"",""49"",""336539""
","
","
","""event"",""trial"",""time""
""fullscreenenter"",""0"",""4360""
","""event"",""trial"",""time""
""fullscreenexit"",""49"",""336539""
","453.6999999997206","","","","","","","","51","0,1,1","1","forest","52","probe-07","0.22360194561502725","0.29339580107599406","0.4317028189878651","1","","","","","","","",""
"","html-keyboard-response","203","854035","0.0-111.0-1.0","""event"",""trial"",""time""
""fullscreenenter"",""0"",""4360""
""fullscreenexit"",""49"",""336539""
","
","
","""event"",""trial"",""time""
""fullscreenenter"",""0"",""4360""
","""event"",""trial"",""time""
""fullscreenexit"",""49"",""336539""
","null","<p></p>","null","","","","","","","","","","","","","","","","","","","","","","",""
"","do_trial","204","860143","0.0-112.0-0.0","""event"",""trial"",""time""
""fullscreenenter"",""0"",""4360""
""fullscreenexit"",""49"",""336539""
","
","
","""event"",""trial"",""time""
""fullscreenenter"",""0"",""4360""
","""event"",""trial"",""time""
""fullscreenexit"",""49"",""336539""
","null","","","","","","","","null","0,1,0","1","forest","53","probe-156","0.12105921706149662","0.4584057504529618","0.5350879976069739","","","","","","","","",""
"","html-keyboard-response","205","861151","0.0-112.0-1.0","""event"",""trial"",""time""
""fullscreenenter"",""0"",""4360""
""fullscreenexit"",""49"",""336539""
","
","
","""event"",""trial"",""time""
""fullscreenenter"",""0"",""4360""
","""event"",""trial"",""time""
""fullscreenexit"",""49"",""336539""
","null","<p></p>","null","","","","","","","","","","","","","","","","","","","","","","",""
"","do_trial","206","866258","0.0-113.0-0.0","""event"",""trial"",""time""
""fullscreenenter"",""0"",""4360""
""fullscreenexit"",""49"",""336539""
","
","
","""event"",""trial"",""time""
""fullscreenenter"",""0"",""4360""
","""event"",""trial"",""time""
""fullscreenexit"",""49"",""336539""
","506.10000000009313","","","","","","","","51","1,1,1","1","forest","54","probe-153","0.21390863184564674","0.5023853762090937","0.4443814410043838","1","","","","","","","",""
"","html-keyboard-response","207","867265","0.0-113.0-1.0","""event"",""trial"",""time""
""fullscreenenter"",""0"",""4360""
""fullscreenexit"",""49"",""336539""
","
","
","""event"",""trial"",""time""
""fullscreenenter"",""0"",""4360""
","""event"",""trial"",""time""
""fullscreenexit"",""49"",""336539""
","null","<p></p>","null","","","","","","","","","","","","","","","","","","","","","","",""
"","do_trial","208","872247","0.0-114.0-0.0","""event"",""trial"",""time""
""fullscreenenter"",""0"",""4360""
""fullscreenexit"",""49"",""336539""
","
","
","""event"",""trial"",""time""
""fullscreenenter"",""0"",""4360""
","""event"",""trial"",""time""
""fullscreenexit"",""49"",""336539""
","374.10000000009313","","","","","","","","51","0,0,0","1","forest","55","probe-220","0.17545083255106206","0.3404426397694769","0.5516713394846219","0","","","","","","","",""
"","html-keyboard-response","209","873253","0.0-114.0-1.0","""event"",""trial"",""time""
""fullscreenenter"",""0"",""4360""
""fullscreenexit"",""49"",""336539""
","
","
","""event"",""trial"",""time""
""fullscreenenter"",""0"",""4360""
","""event"",""trial"",""time""
""fullscreenexit"",""49"",""336539""
","null","<p></p>","null","","","","","","","","","","","","","","","","","","","","","","",""
"","do_trial","210","878186","0.0-115.0-0.0","""event"",""trial"",""time""
""fullscreenenter"",""0"",""4360""
""fullscreenexit"",""49"",""336539""
","
","
","""event"",""trial"",""time""
""fullscreenenter"",""0"",""4360""
","""event"",""trial"",""time""
""fullscreenexit"",""49"",""336539""
","331.10000000009313","","","","","","","","51","0,0,1","1","forest","56","probe-218","0.13561872279076276","0.2983113328274324","0.615196286300791","1","","","","","","","",""
"","html-keyboard-response","211","879191","0.0-115.0-1.0","""event"",""trial"",""time""
""fullscreenenter"",""0"",""4360""
""fullscreenexit"",""49"",""336539""
","
","
","""event"",""trial"",""time""
""fullscreenenter"",""0"",""4360""
","""event"",""trial"",""time""
""fullscreenexit"",""49"",""336539""
