"success","trial_type","trial_index","time_elapsed","internal_node_id","rt","stimulus","key_press","subject_id","participant_id","age","gender","prompt","response","choice_outcomes","context_n","context_img_id","trial_n","probe_img_id","pR_red","pR_white","pR_black","outcome","contextArray_ind","validImageProbes","invalidImageProbes","pRew_Red","pRew_White","pRew_Black","availableForMemProbe","choice_blocks"
"true","fullscreen","0","21117","0.0-0.0","","","","","","","","","","","","","","","","","","","","","","","","","",""
"","pavlovia","1","21121","0.0-1.0","","","","","","","","","","","","","","","","","","","","","","","","","",""
"","instruc1","2","73233","0.0-2.0","null","run_exp/static/audio/clip_1_welcome.m4a","null","117","749","12","Female","<div class='center'><p>Welcome! This is the first part of the experiment. It will last ~30 minutes. In this experiment, you are the head captain of a pirate ship traveling around the world to different islands. You will play a few different games during this experiment. Here is an overview of these games:</p><br><p>Part 1 (today)</p><p>1. Instructions, practice game, and quiz</p><p>2. Pick a pirate game on 6 different islands</p><br><p>Part 2 (1 day later)</p><p>3. Pick a pirate game and memory game</p><p>4. Where did I see this ship? game</p><p>5. Which pirate was the best? game</p><br><p>Part 3 (1 week later)</p><p>6. Memory game</p></div>","","","","","","","","","","","","","","","","","",""
"","html-keyboard-response","3","74777","0.0-3.0","1541.9000000059605","<div class='center'><p>Welcome! This is the first part of the experiment. It will last ~30 minutes. In this experiment, you are the head captain of a pirate ship traveling around the world to different islands. You will play a few different games during this experiment. Here is an overview of these games:</p><br><p>Part 1 (today)</p><p>1. Instructions, practice game, and quiz</p><p>2. Pick a pirate game on 6 different islands</p><br><p>Part 2 (1 day later)</p><p>3. Pick a pirate game and memory game</p><p>4. Where did I see this ship? game</p><p>5. Which pirate was the best? game</p><br><p>Part 3 (1 week later)</p><p>6. Memory game</p><p><b>[Press the space bar to continue]</b></p></div>","32","","","","","","","","","","","","","","","","","","","","","","",""
"","instruc2","4","82792","0.0-4.0","null","run_exp/static/audio/clip_2_different_places.m4a","null","","","","","<div class='center'><p>Today, you’ll visit these 6 islands on your journey. You'll be able to see these islands from your ship.</p><p><img src='run_exp/static/images/contexts/all_contexts.png' height='500'></p></div>","","","","","","","","","","","","","","","","","",""
"","html-keyboard-response","5","85175","0.0-5.0","2380.4000000059605","<div class='center'><p>Today, you’ll visit these 6 islands on your journey. You'll be able to see these islands from your ship.</p><p><img src='run_exp/static/images/contexts/all_contexts.png' height='500'></p><p><b>[Press the space bar to continue]</b></p></div>","32","","","","","","","","","","","","","","","","","","","","","","",""
"","instruc3","6","97752","0.0-6.0","null","run_exp/static/audio/clip_3_goal_of_game_1.m4a","null","","","","","<div class='center'><p> The pirates on your ship will rob other ships as they leave the island</p> These ships have just sold their things to people on the island, so they will be filled with lots and lots of gold.</p><p><img src='run_exp/static/images/tutorial/ship_center.png' height='400'></p></div>","","","","","","","","","","","","","","","","","",""
"","html-keyboard-response","7","98546","0.0-7.0","792.2999999821186","<div class='center'><p> The pirates on your ship will rob other ships as they leave the island</p> These ships have just sold their things to people on the island, so they will be filled with lots and lots of gold.</p><p><img src='run_exp/static/images/tutorial/ship_center.png' height='400'></p><p><b>[Press the space bar to continue]</b></p></div>","32","","","","","","","","","","","","","","","","","","","","","","",""
"","instruc4","8","131772","0.0-8.0","null","run_exp/static/audio/clip_4_goal_of_game_2.m4a","null","","","","","<div class='center'><p>As the head captain, you do not have to rob any ships yourself.</p><p>Another pirate will be doing the robbing for you. </p><p>First, you will  choose a pirate to rob the next ship.</p><p><img src='run_exp/static/images/tutorial/pirates_all_crop.png' height='200'></p><p>Then, you'll see if the pirate successfully robbed the ship of their gold. If they were successful, then you'll  get a stack of gold coins like this:</p><p><img src='run_exp/static/images/tutorial/reward.png' height='150'></p><p> If they were <b>not</b> successful, then you'll get no gold coins, and you'll see a big red x like this: </p><p><img src='run_exp/static/images/tutorial/reward_no.png' height='150'></p><p> How much bonus money you make is based on how many gold coins you collect.</p><div>","","","","","","","","","","","","","","","","","",""
"","html-keyboard-response","9","133836","0.0-9.0","2060.5","<div class='center'><p>As the head captain, you do not have to rob any ships yourself.</p><p>Another pirate will be doing the robbing for you. </p><p>First, you will  choose a pirate to rob the next ship.</p><p><img src='run_exp/static/images/tutorial/pirates_all_crop.png' height='200'></p><p>Then, you'll see if the pirate successfully robbed the ship of their gold. If they were successful, then you'll  get a stack of gold coins like this:</p><p><img src='run_exp/static/images/tutorial/reward.png' height='150'></p><p> If they were <b>not</b> successful, then you'll get no gold coins, and you'll see a big red x like this: </p><p><img src='run_exp/static/images/tutorial/reward_no.png' height='150'></p><p> How much bonus money you make is based on how many gold coins you collect.</p<p><b>[Press the space bar to continue]</b></p></div>","32","","","","","","","","","","","","","","","","","","","","","","",""
"","instruc5","10","162809","0.0-10.0","28971.80000001192","run_exp/static/audio/clip_5_probabilistic.m4a","49","","","","","<div class='center'><p>Even the most skilled pirate can not rob EVERY ship.</p><p> Some ships will have very strong protections against pirate attacks.</p><p> Blue beard, here, is very, very good at robbing ships, but he won't be successful every time he tries to rob one.</p><p> You can press the <b>‘1’</b> key on the keyboard to choose him.</p><p> Try choosing him 10 times to see how often he succeeds at robbing a ship. </p><p><img src='run_exp/static/images/tutorial/blue.png' height='500'></p></div>","","","","","","","","","","","","","","","","","",""
"","html-keyboard-response","11","164311","0.0-11.0","null","<div class='center'><p><img src='run_exp/static/images/tutorial/blue_win.png' height='500'></p></div>","null","","","","","","","","","","","","","","","","","","","","","","",""
"","html-keyboard-response","12","190884","0.0-12.0","26570.59999999404","<div class='center'><img src='run_exp/static/images/tutorial/blue.png' height='500'></p></div>","49","","","","","","","","","","","","","","","","","","","","","","",""
"","html-keyboard-response","13","192396","0.0-13.0","null","<div class='center'><p><img src='run_exp/static/images/tutorial/blue_win.png' height='500'></p></div>","null","","","","","","","","","","","","","","","","","","","","","","",""
"","html-keyboard-response","14","194380","0.0-14.0","1982.8999999761581","<div class='center'><img src='run_exp/static/images/tutorial/blue.png' height='500'></p></div>","49","","","","","","","","","","","","","","","","","","","","","","",""
"","html-keyboard-response","15","195881","0.0-15.0","null","<div class='center'><p><img src='run_exp/static/images/tutorial/blue_win.png' height='500'></p></div>","null","","","","","","","","","","","","","","","","","","","","","","",""
"","html-keyboard-response","16","197216","0.0-16.0","1333.6000000238419","<div class='center'><img src='run_exp/static/images/tutorial/blue.png' height='500'></p></div>","49","","","","","","","","","","","","","","","","","","","","","","",""
"","html-keyboard-response","17","198722","0.0-17.0","null","<div class='center'><p><img src='run_exp/static/images/tutorial/blue_no_win.png' height='500'></p></div>","null","","","","","","","","","","","","","","","","","","","","","","",""
"","html-keyboard-response","18","199089","0.0-18.0","365.59999999403954","<div class='center'><img src='run_exp/static/images/tutorial/blue.png' height='500'></p></div>","49","","","","","","","","","","","","","","","","","","","","","","",""
"","html-keyboard-response","19","200605","0.0-19.0","null","<div class='center'><p><img src='run_exp/static/images/tutorial/blue_win.png' height='500'></p></div>","null","","","","","","","","","","","","","","","","","","","","","","",""
"","html-keyboard-response","20","201105","0.0-20.0","499","<div class='center'><img src='run_exp/static/images/tutorial/blue.png' height='500'></p></div>","49","","","","","","","","","","","","","","","","","","","","","","",""
"","html-keyboard-response","21","202607","0.0-21.0","null","<div class='center'><p><img src='run_exp/static/images/tutorial/blue_win.png' height='500'></p></div>","null","","","","","","","","","","","","","","","","","","","","","","",""
"","html-keyboard-response","22","202914","0.0-22.0","305.10000002384186","<div class='center'><img src='run_exp/static/images/tutorial/blue.png' height='500'></p></div>","49","","","","","","","","","","","","","","","","","","","","","","",""
"","html-keyboard-response","23","204423","0.0-23.0","null","<div class='center'><p><img src='run_exp/static/images/tutorial/blue_win.png' height='500'></p></div>","null","","","","","","","","","","","","","","","","","","","","","","",""
"","html-keyboard-response","24","204698","0.0-24.0","274","<div class='center'><img src='run_exp/static/images/tutorial/blue.png' height='500'></p></div>","49","","","","","","","","","","","","","","","","","","","","","","",""
"","html-keyboard-response","25","206201","0.0-25.0","null","<div class='center'><p><img src='run_exp/static/images/tutorial/blue_no_win.png' height='500'></p></div>","null","","","","","","","","","","","","","","","","","","","","","","",""
"","html-keyboard-response","26","206727","0.0-26.0","524.5999999940395","<div class='center'><img src='run_exp/static/images/tutorial/blue.png' height='500'></p></div>","49","","","","","","","","","","","","","","","","","","","","","","",""
"","html-keyboard-response","27","208228","0.0-27.0","null","<div class='center'><p><img src='run_exp/static/images/tutorial/blue_win.png' height='500'></p></div>","null","","","","","","","","","","","","","","","","","","","","","","",""
"","html-keyboard-response","28","208535","0.0-28.0","304.80000001192093","<div class='center'><img src='run_exp/static/images/tutorial/blue.png' height='500'></p></div>","49","","","","","","","","","","","","","","","","","","","","","","",""
"","html-keyboard-response","29","210052","0.0-29.0","null","<div class='center'><p><img src='run_exp/static/images/tutorial/blue_win.png' height='500'></p></div>","null","","","","","","","","","","","","","","","","","","","","","","",""
"","instruc6","30","217731","0.0-30.0","null","run_exp/static/audio/clip_6_blue_beard_outcome.m4a","null","","","","","<div class='center'><p> See, he succeeded in robbing the ships most of the time but not every time. </p></div>","","","","","","","","","","","","","","","","","",""
"","html-keyboard-response","31","218952","0.0-31.0","1220.5","<div class='center'><p> See, he succeeded in robbing the ships most of the time but not every time. </p><p><b>[Press the space bar to continue]</b></p></div>","32","","","","","","","","","","","","","","","","","","","","","","",""
"","audio-keyboard-response","32","241028","0.0-32.0","22074","run_exp/static/audio/clip_7_pick_pirate.m4a","50","","","","","","","","","","","","","","","","","","","","","","",""
"","audio-keyboard-response","33","248866","0.0-33.0-0.0","7836.299999982119","run_exp/static/audio/clip_8_chosen_pirate_win.m4a","32","","","","","","","","","","","","","","","","","","","","","","",""
"","audio-keyboard-response","34","251887","0.0-33.0-1.0","3018.699999988079","run_exp/static/audio/clip_9_pick_a_pirate_again.m4a","49","","","","","","","","","","","","","","","","","","","","","","",""
"","audio-keyboard-response","35","257464","0.0-34.0-0.0","5574.200000017881","run_exp/static/audio/clip_10_chosen_pirate_loss.m4a","32","","","","","","","","","","","","","","","","","","","","","","",""
"","instruc9","36","264631","0.0-35.0-0.0","null","run_exp/static/audio/clip_11_time_out.m4a","null","","","","","<div class='center'><p>If you don’t make your choice fast enough, you’ll have to wait a few seconds before you can make another one. </p><p><img src='run_exp/static/images/miscellaneous/hurry_up.png' height='500'></p></div>","","","","","","","","","","","","","","","","","",""
"","html-keyboard-response","37","265188","0.0-35.0-1.0","556","<div class='center'><p>If you don’t make your choice fast enough, you’ll have to wait a few seconds before you can make another one. </p><p><img src='run_exp/static/images/miscellaneous/hurry_up.png' height='500'></p><p><b>[Press the space bar to continue]</b></p></div>","32","","","","","","","","","","","","","","","","","","","","","","",""
"","instruc10","38","313811","0.0-35.0-2.0","null","run_exp/static/audio/clip_12_probe.m4a","null","","","","","<div class='center'><p>Once you've choose a pirate, you’ll be shown the ship they are robbing.</p><p>You will never rob the same ship twice. After all, ships that have already been robbed won’t have gold on them. </p><p>Ships can be told apart from one another by the image on them. See, this one has a travel mug on it. </p><p> You’ll have to remember which island you saw each ship on.You will win more bonus money if you remember correctly! To help you remember, you can imagine a story. For example, here, you could imagine a mug full of water in the desert. Or, as another example, if on the forest island, your pirate robbed a ship with an apple on it, you could imagine an apple falling from a tree in the forest. </p><p><img src='run_exp/static/images/tutorial/example_probe.png' height='500'></p></div>","","","","","","","","","","","","","","","","","",""
"","html-keyboard-response","39","315004","0.0-35.0-3.0","1191.2000000178814","<div class='center'><p>Once you've choose a pirate, you’ll be shown the ship they are robbing.</p><p>You will never rob the same ship twice. After all, ships that have already been robbed won’t have gold on them. </p><p>Ships can be told apart from one another by the image on them. See, this one has a travel mug on it. </p><p> You’ll have to remember which island you saw each ship on.You will win more bonus money if you remember correctly! To help you remember, you can imagine a story. For example, here, you could imagine a mug full of water in the desert. Or, as another example, if on the forest island, your pirate robbed a ship with an apple on it, you could imagine an apple falling from a tree in the forest. </p><p><img src='run_exp/static/images/tutorial/example_probe.png' height='500'></p><p><b>[Press the space bar to continue]</b></p></div>","32","","","","","","","","","","","","","","","","","","","","","","",""
"","instruc11","40","335911","0.0-35.0-4.0","null","run_exp/static/audio/clip_13_changepoint.m4a","null","","","","","<div class='center'><p>How successful a pirate is at robbing ships will depend on the island you’re on.</p><p> A pirate may have visited this island many times before and gained a lot of practice robbing ships there.</p><p>So, they’re more likely to be successful than a pirate who has never visited the island before.</p></div>","","","","","","","","","","","","","","","","","",""
"","html-keyboard-response","41","337800","0.0-35.0-5.0","1887","<div class='center'><p>How successful a pirate is at robbing ships will depend on the island you’re on.</p><p> A pirate may have visited this island many times before and gained a lot of practice robbing ships there.</p><p>So, they’re more likely to be successful than a pirate who has never visited the island before.</p><p><b>[Press the space bar to continue]</b></p></div>","32","","","","","","","","","","","","","","","","","","","","","","",""
"","instruc12","42","365831","0.0-35.0-6.0","null","run_exp/static/audio/clip_14_drift.m4a","null","","","","","<div class='center'><p>How successful a pirate is at robbing ships can also change over the time spent on the island. </p><p> Ships may hear from islanders about the pirates coming and will improve their protections against the attack. This may make it harder to rob them.</p><p> Ships may also become lazy and weaken the strength of their protections. This may make it easier to rob them.</p><br><p>Things are always changing on the high seas! So, try your best to pay attention!</p><p><img src='run_exp/static/images/tutorial/contingency.png' height='500'></p></div>","","","","","","","","","","","","","","","","","",""
"","html-keyboard-response","43","368714","0.0-35.0-7.0","2881.5999999940395","<div class='center'><p>How successful a pirate is at robbing ships can also change over the time spent on the island. </p><p> Ships may hear from islanders about the pirates coming and will improve their protections against the attack. This may make it harder to rob them.</p><p> Ships may also become lazy and weaken the strength of their protections. This may make it easier to rob them.</p><br><p>Things are always changing on the high seas! So, try your best to pay attention!</p><p><img src='run_exp/static/images/tutorial/contingency.png' height='500'></p><p><b>[Press the space bar to continue]</b></p></div>","32","","","","","","","","","","","","","","","","","","","","","","",""
"","instruc13","44","413930","0.0-35.0-8.0","null","run_exp/static/audio/clip_15_summary.m4a","null","","","","","<div class='center'><p>Let's go over the instructions quickly again. You have two important things to do: </p><b><p> 1. Pick the pirate who is the best at robbing ships on the current island. This way you'll collect more gold coins!</p></b><b><p> 2. Remember on which island a ship was robbed.</p> </b><p>The amount of bonus money you can win depends on both.</p><p><br><p>Let’s try a practice game. The game will start by showing you the pirates. First, pick a pirate using the <b> 1, 2, 3 </b> keys on your keyboard. When you are shown a ship, try to remember which island you’re on by making up a story.</p><p>This is just a practice game, so you’re not playing for money. </p><p> Good luck! This game will be very difficult but try your best!</p></div>","","","","","","","","","","","","","","","","","",""
"","html-keyboard-response","45","414407","0.0-35.0-9.0","475.90000000596046","<div class='center'><p>Let's go over the instructions quickly again. You have two important things to do: </p><b><p> 1. Pick the pirate who is the best at robbing ships on the current island. This way you'll collect more gold coins!</p></b><b><p> 2. Remember on which island a ship was robbed.</p> </b><p>The amount of bonus money you can win depends on both.</p><p><br><p>Let’s try a practice game. The game will start by showing you the pirates. First, pick a pirate using the <b> 1, 2, 3 </b> keys on your keyboard. When you are shown a ship, try to remember which island you’re on by making up a story.</p><p>This is just a practice game, so you’re not playing for money. </p><p> Good luck! This game will be very difficult but try your best!</p><p><b>[Press the space bar to continue]</b></p></div>","32","","","","","","","","","","","","","","","","","","","","","","",""
"","do_welcome","46","418418","0.0-35.0-10.0","null","","","","","","","","null","","","","","","","","","","","","","","","","",""
"","do_trial","47","424793","0.0-35.0-11.0","1858","","","","","","","","50","1,0,0","","","","","","","","","","","","","","","",""
"","html-keyboard-response","48","425797","0.0-36.0-0.0","null","<p></p>","null","","","","","","","","","","","","","","","","","","","","","","",""
"","do_trial","49","432257","0.0-36.0-1.0","1940.9000000059605","","","","","","","","49","1,1,0","","","","","","","","","","","","","","","",""
"","html-keyboard-response","50","433266","0.0-37.0-0.0","null","<p></p>","null","","","","","","","","","","","","","","","","","","","","","","",""
"","do_trial","51","440245","0.0-37.0-1.0","2466.9000000059605","","","","","","","","51","1,0,1","","","","","","","","","","","","","","","",""
"","html-keyboard-response","52","441249","0.0-38.0-0.0","null","<p></p>","null","","","","","","","","","","","","","","","","","","","","","","",""
"","do_trial","53","447698","0.0-38.0-1.0","1931.199999988079","","","","","","","","49","0,1,0","","","","","","","","","","","","","","","",""
"","html-keyboard-response","54","448715","0.0-39.0-0.0","null","<p></p>","null","","","","","","","","","","","","","","","","","","","","","","",""
"","do_trial","55","454735","0.0-39.0-1.0","null","","","","","","","","null","1,0,0","","","","","","","","","","","","","","","",""
"","html-keyboard-response","56","455747","0.0-40.0-0.0","null","<p></p>","null","","","","","","","","","","","","","","","","","","","","","","",""
"","do_trial","57","460771","0.0-40.0-1.0","503.69999998807907","","","","","","","","50","1,0,0","","","","","","","","","","","","","","","",""
"","do_bye","58","462277","0.0-41.0-0.0","null","","","","","","","","null","","","","","","","","","","","","","","","","",""
"","do_travel","59","471296","0.0-41.0-1.0","null","","","","","","","","null","","","","","","","","","","","","","","","","",""
"","do_welcome","60","475312","0.0-41.0-2.0","null","","","","","","","","null","","","","","","","","","","","","","","","","",""
"","do_trial","61","480892","0.0-41.0-3.0","1063.2000000178814","","","","","","","","49","1,0,0","","","","","","","","","","","","","","","",""
"","html-keyboard-response","62","481906","0.0-42.0-0.0","null","<p></p>","null","","","","","","","","","","","","","","","","","","","","","","",""
"","do_trial","63","488737","0.0-42.0-1.0","2319.5","","","","","","","","50","1,0,1","","","","","","","","","","","","","","","",""
"","html-keyboard-response","64","489752","0.0-43.0-0.0","null","<p></p>","null","","","","","","","","","","","","","","","","","","","","","","",""
"","do_trial","65","495738","0.0-43.0-1.0","1469","","","","","","","","51","1,1,0","","","","","","","","","","","","","","","",""
"","html-keyboard-response","66","496751","0.0-44.0-0.0","null","<p></p>","null","","","","","","","","","","","","","","","","","","","","","","",""
"","do_trial","67","502812","0.0-44.0-1.0","1546.2999999821186","","","","","","","","50","0,0,1","","","","","","","","","","","","","","","",""
"","html-keyboard-response","68","503825","0.0-45.0-0.0","null","<p></p>","null","","","","","","","","","","","","","","","","","","","","","","",""
"","do_trial","69","509140","0.0-45.0-1.0","799","","","","","","","","49","1,0,1","","","","","","","","","","","","","","","",""
"","html-keyboard-response","70","514052","0.0-46.0-0.0","4909.799999982119","<div class='center'><p><img src='run_exp/static/images/tutorial/prac_best_pirate.png'  height='500'></p></div>","49","","","","","","","","","","","","","","","","","","","","","","",""
"","html-keyboard-response","71","516075","0.0-47.0-0.0","2021.199999988079","<div class='center'><p>That's correct! Red beard was the best.</p><p><b>[Press the space bar to continue]</b></p></div>","32","","","","","","","","","","","","","","","","","","","","","","",""
"","html-keyboard-response","72","522573","0.0-47.0-1.0","6497.200000017881","<div class='center'><p><img src='run_exp/static/images/tutorial/prac_source.png'  height='500'></p></div>","50","","","","","","","","","","","","","","","","","","","","","","",""
"","html-keyboard-response","73","524121","0.0-48.0-0.0","1546.7999999821186","<div class='center'><p>That's correct! You saw this ship on the cavern island.</p><p><b>[Press the space bar to continue]</b></p></div>","32","","","","","","","","","","","","","","","","","","","","","","",""
"","quiz_beginning","74","538562","0.0-48.0-1.0","null","run_exp/static/audio/clip_16_quiz_intro.m4a","null","","","","","<div class='center'><p>Good job on the practice game! Now, you will be asked some true or false questions to make sure you really understand the rules of the game.</p><p> Press <b>'1'</b> on the keyboard for true and press <b>'2'</b> for false.</p></div>","","","","","","","","","","","","","","","","","",""
"","audio-keyboard-response","75","550219","0.0-48.0-2.0","11655.199999988079","run_exp/static/audio/clip_17_q1.m4a","49","","","","","","","","","","","","","","","","","","","","","","",""
"","q1_err","76","557842","0.0-49.0-0.0","null","run_exp/static/audio/clip_19_wrong_q1.m4a","null","","","","","<div class='center'><p>That’s incorrect! You win bonus money by collecting as many gold coins as possible!</p></div>","","","","","","","","","","","","","","","","","",""
"","html-keyboard-response","77","559022","0.0-49.0-1.0","1179.9000000059605","<div class='center'><p>That’s incorrect! You win bonus money by collecting as many gold coins as possible!</p><p><b>[Press the space bar to continue]</b></p></div>","32","","","","","","","","","","","","","","","","","","","","","","",""
"","audio-keyboard-response","78","563615","0.0-49.0-2.0","4591.799999982119","run_exp/static/audio/clip_20_q2.m4a","50","","","","","","","","","","","","","","","","","","","","","","",""
"","correct","79","566602","0.0-50.0-0.0","null","run_exp/static/audio/clip_18_correct.m4a","null","","","","","<div class='center'><p>That's correct!</p></div>","","","","","","","","","","","","","","","","","",""
"","html-keyboard-response","80","566728","0.0-50.0-1.0","125.59999999403954","<div class='center'><p>That's correct!</p><p><b>[Press the space bar to continue]</b></p></div>","32","","","","","","","","","","","","","","","","","","","","","","",""
"","audio-keyboard-response","81","573551","0.0-50.0-2.0","6821.299999982119","run_exp/static/audio/clip_22_q3.m4a","50","","","","","","","","","","","","","","","","","","","","","","",""
"","correct","82","576522","0.0-51.0-0.0","null","run_exp/static/audio/clip_18_correct.m4a","null","","","","","<div class='center'><p>That's correct!</p></div>","","","","","","","","","","","","","","","","","",""
"","html-keyboard-response","83","577633","0.0-51.0-1.0","1109","<div class='center'><p>That's correct!</p><p><b>[Press the space bar to continue]</b></p></div>","32","","","","","","","","","","","","","","","","","","","","","","",""
"","audio-keyboard-response","84","580299","0.0-51.0-2.0","2664.699999988079","run_exp/static/audio/clip_24_q4.m4a","49","","","","","","","","","","","","","","","","","","","","","","",""
"","correct","85","583282","0.0-52.0-0.0","null","run_exp/static/audio/clip_18_correct.m4a","null","","","","","<div class='center'><p>That's correct!</p></div>","","","","","","","","","","","","","","","","","",""
"","html-keyboard-response","86","585403","0.0-52.0-1.0","2120","<div class='center'><p>That's correct!</p><p><b>[Press the space bar to continue]</b></p></div>","32","","","","","","","","","","","","","","","","","","","","","","",""
"","q_all_err","87","592942","0.0-53.0-0.0","null","run_exp/static/audio/clip_26_quiz_redo.m4a","null","","","","","<div class='center'><p>Oops, you missed some questions. Now that you’ve heard the correct answers. Try the quiz again! </p></div>","","","","","","","","","","","","","","","","","",""
"","html-keyboard-response","88","593147","0.0-53.0-1.0","203.19999998807907","<div class='center'><p>Oops, you missed some questions. Now that you’ve heard the correct answers. Try the quiz again! </p><p><b>[Press the space bar to continue]</b></p></div>","32","","","","","","","","","","","","","","","","","","","","","","",""
"","audio-keyboard-response","89","598326","0.0-53.0-2.0","5177.4000000059605","run_exp/static/audio/clip_17_q1.m4a","50","","","","","","","","","","","","","","","","","","","","","","",""
"","correct","90","601303","0.0-54.0-0.0","null","run_exp/static/audio/clip_18_correct.m4a","null","","","","","<div class='center'><p>That's correct!</p></div>","","","","","","","","","","","","","","","","","",""
"","html-keyboard-response","91","602296","0.0-54.0-1.0","991.8999999761581","<div class='center'><p>That's correct!</p><p><b>[Press the space bar to continue]</b></p></div>","32","","","","","","","","","","","","","","","","","","","","","","",""
"","audio-keyboard-response","92","604637","0.0-54.0-2.0","2339.4000000059605","run_exp/static/audio/clip_20_q2.m4a","50","","","","","","","","","","","","","","","","","","","","","","",""
"","correct","93","607602","0.0-55.0-0.0","null","run_exp/static/audio/clip_18_correct.m4a","null","","","","","<div class='center'><p>That's correct!</p></div>","","","","","","","","","","","","","","","","","",""
"","html-keyboard-response","94","608555","0.0-55.0-1.0","952.2000000178814","<div class='center'><p>That's correct!</p><p><b>[Press the space bar to continue]</b></p></div>","32","","","","","","","","","","","","","","","","","","","","","","",""
"","audio-keyboard-response","95","611905","0.0-55.0-2.0","3348.7999999821186","run_exp/static/audio/clip_22_q3.m4a","50","","","","","","","","","","","","","","","","","","","","","","",""
"","correct","96","614881","0.0-56.0-0.0","null","run_exp/static/audio/clip_18_correct.m4a","null","","","","","<div class='center'><p>That's correct!</p></div>","","","","","","","","","","","","","","","","","",""
"","html-keyboard-response","97","616055","0.0-56.0-1.0","1172.9000000059605","<div class='center'><p>That's correct!</p><p><b>[Press the space bar to continue]</b></p></div>","32","","","","","","","","","","","","","","","","","","","","","","",""
"","audio-keyboard-response","98","622055","0.0-56.0-2.0","5999.300000011921","run_exp/static/audio/clip_24_q4.m4a","49","","","","","","","","","","","","","","","","","","","","","","",""
"","correct","99","625081","0.0-57.0-0.0","null","run_exp/static/audio/clip_18_correct.m4a","null","","","","","<div class='center'><p>That's correct!</p></div>","","","","","","","","","","","","","","","","","",""
"","html-keyboard-response","100","625971","0.0-57.0-1.0","888.5999999940395","<div class='center'><p>That's correct!</p><p><b>[Press the space bar to continue]</b></p></div>","32","","","","","","","","","","","","","","","","","","","","","","",""
"","q_all_corr","101","634921","0.0-58.0-0.0","null","run_exp/static/audio/clip_27_quiz_all_correct.m4a","null","","","","","<div class='center'><p>Good job! You’re now ready to move on to the real game! Remember this game will be difficult but don't get discouraged and try your best!</p></div>","","","","","","","","","","","","","","","","","",""
"","html-keyboard-response","102","635984","0.0-58.0-1.0","1061.5999999940395","<div class='center'><p>Good job! You’re now ready to move on to the real game! Remember this game will be difficult but don't get discouraged and try your best!</p><p><b>[Press the space bar to continue]</b></p></div>","32","","","","","","","","","","","","","","","","","","","","","","",""
"","do_welcome","103","639998","0.0-59.0-0.0","null","","","","","","","","null","","","","","","","","","","","","","","","","",""
"","do_trial","104","645648","0.0-60.0-0.0","1100.5999999940395","","","","","","","","49","1,1,0","0","city","0","probe-48","0.6","0.3","0.1","1","","","","","","","",""
"","html-keyboard-response","105","646660","0.0-60.0-1.0","null","<p></p>","null","","","","","","","","","","","","","","","","","","","","","","",""
"","do_trial","106","652384","0.0-61.0-0.0","1176.2999999821186","","","","","","","","50","0,1,1","0","city","1","probe-222","0.5616371967259078","0.24675898363194929","0.1951486377309487","1","","","","","","","",""
"","html-keyboard-response","107","653397","0.0-61.0-1.0","null","<p></p>","null","","","","","","","","","","","","","","","","","","","","","","",""
"","do_trial","108","659942","0.0-62.0-0.0","1992.2999999821186","","","","","","","","51","1,1,0","0","city","2","probe-168","0.503316857657206","0.2600486127361793","0.1589887552145439","0","","","","","","","",""
"","html-keyboard-response","109","660945","0.0-62.0-1.0","null","<p></p>","null","","","","","","","","","","","","","","","","","","","","","","",""
"","do_trial","110","666689","0.0-63.0-0.0","1198.699999988079","","","","","","","","50","0,0,0","0","city","3","probe-51","0.5454899781131651","0.3405344139584271","0.09153822647131872","0","","","","","","","",""
"","html-keyboard-response","111","667703","0.0-63.0-1.0","null","<p></p>","null","","","","","","","","","","","","","","","","","","","","","","",""
"","do_trial","112","673287","0.0-64.0-0.0","1023.8000000119209","","","","","","","","49","0,1,0","0","city","4","probe-100","0.6414832167029703","0.38406051063848845","0.1270151421817613","0","","","","","","","",""
"","html-keyboard-response","113","674299","0.0-64.0-1.0","null","<p></p>","null","","","","","","","","","","","","","","","","","","","","","","",""
"","do_trial","114","679976","0.0-65.0-0.0","1108.5999999940395","","","","","","","","50","1,0,0","0","city","5","probe-171","0.6431032555419166","0.3096869607342598","0.11184126990666948","0","","","","","","","",""
"","html-keyboard-response","115","680986","0.0-65.0-1.0","null","<p></p>","null","","","","","","","","","","","","","","","","","","","","","","",""
"","do_trial","116","686900","0.0-66.0-0.0","1358.699999988079","","","","","","","","51","1,0,0","0","city","6","probe-187","0.6407396743066903","0.1884762754395593","0.10679241802568959","0","","","","","","","",""
"","html-keyboard-response","117","687914","0.0-66.0-1.0","null","<p></p>","null","","","","","","","","","","","","","","","","","","","","","","",""
"","do_trial","118","693300","0.0-67.0-0.0","824.8999999761581","","","","","","","","49","1,0,0","0","city","7","probe-213","0.6697555730446508","0.16550074261983821","0.3043862053216841","1","","","","","","","",""
"","html-keyboard-response","119","694302","0.0-67.0-1.0","null","<p></p>","null","","","","","","","","","","","","","","","","","","","","","","",""
"","do_trial","120","699287","0.0-68.0-0.0","421.30000001192093","","","","","","","","50","0,0,0","0","city","8","probe-207","0.7218986135167207","0.17173882887760478","0.15785023265408796","0","","","","","","","",""
"","html-keyboard-response","121","700288","0.0-68.0-1.0","null","<p></p>","null","","","","","","","","","","","","","","","","","","","","","","",""
"","do_trial","122","705139","0.0-69.0-0.0","310.80000001192093","","","","","","","","51","1,0,0","0","city","9","probe-141","0.6357366460662013","0.3241102357686656","0.2101609138223352","0","","","","","","","",""
"","html-keyboard-response","123","706145","0.0-69.0-1.0","null","<p></p>","null","","","","","","","","","","","","","","","","","","","","","","",""
"","do_trial","124","710889","0.0-70.0-0.0","195.19999998807907","","","","","","","","50","1,0,0","0","city","10","probe-151","0.5131368394707341","0.433473722969475","0.1639360276668663","0","","","","","","","",""
"","html-keyboard-response","125","711891","0.0-70.0-1.0","null","<p></p>","null","","","","","","","","","","","","","","","","","","","","","","",""
"","do_trial","126","716739","0.0-71.0-0.0","298.19999998807907","","","","","","","","51","0,0,0","0","city","11","probe-115","0.5827284646739285","0.2660590689733271","0.1637397228888228","0","","","","","","","",""
"","html-keyboard-response","127","717750","0.0-71.0-1.0","null","<p></p>","null","","","","","","","","","","","","","","","","","","","","","","",""
"","do_trial","128","722666","0.0-72.0-0.0","369.59999999403954","","","","","","","","49","1,0,0","0","city","12","probe-226","0.6958848963455215","0.2982296856444522","0.07450144033404421","1","","","","","","","",""
"","html-keyboard-response","129","723677","0.0-72.0-1.0","null","<p></p>","null","","","","","","","","","","","","","","","","","","","","","","",""
"","do_trial","130","728853","0.0-73.0-0.0","624.1000000238419","","","","","","","","51","1,0,0","0","city","13","probe-82","0.7038861141658539","0.16236933595144593","0.1756769897642807","0","","","","","","","",""
"","html-keyboard-response","131","729863","0.0-73.0-1.0","null","<p></p>","null","","","","","","","","","","","","","","","","","","","","","","",""
"","do_trial","132","734775","0.0-74.0-0.0","355.90000000596046","","","","","","","","50","0,0,0","0","city","14","probe-11","0.5648709549048211","0.2156664094928949","0.19650867602185376","0","","","","","","","",""
"","html-keyboard-response","133","735789","0.0-74.0-1.0","null","<p></p>","null","","","","","","","","","","","","","","","","","","","","","","",""
"","do_trial","134","740876","0.0-75.0-0.0","527.0999999940395","","","","","","","","49","0,0,0","0","city","15","probe-110","0.5587427568756297","0.30598626285003555","0.17540140934165085","0","","","","","","","",""
"","html-keyboard-response","135","741885","0.0-75.0-1.0","null","<p></p>","null","","","","","","","","","","","","","","","","","","","","","","",""
"","do_trial","136","746797","0.0-76.0-0.0","359.5","","","","","","","","50","0,1,0","0","city","16","probe-58","0.6205220647724604","0.3507974345997206","0.23638109713233252","1","","","","","","","",""
"","html-keyboard-response","137","747798","0.0-76.0-1.0","null","<p></p>","null","","","","","","","","","","","","","","","","","","","","","","",""
"","do_trial","138","753058","0.0-77.0-0.0","717","","","","","","","","51","1,1,0","0","city","17","probe-84","0.5884630297383417","0.3692725872566667","0.2811618428073247","0","","","","","","","",""
"","html-keyboard-response","139","754070","0.0-77.0-1.0","null","<p></p>","null","","","","","","","","","","","","","","","","","","","","","","",""
"","do_trial","140","758971","0.0-78.0-0.0","350.90000000596046","","","","","","","","50","0,0,1","0","city","18","probe-111","0.6454725162078703","0.33657032941767734","0.2382409014696627","0","","","","","","","",""
"","html-keyboard-response","141","759982","0.0-78.0-1.0","null","<p></p>","null","","","","","","","","","","","","","","","","","","","","","","",""
"","do_trial","142","764773","0.0-79.0-0.0","242.5","","","","","","","","50","1,1,0","0","city","19","probe-167","0.6579059724561053","0.43142841241660096","0.28710502362543394","1","","","","","","","",""
"","html-keyboard-response","143","765785","0.0-79.0-1.0","null","<p></p>","null","","","","","","","","","","","","","","","","","","","","","","",""
"","do_trial","144","770827","0.0-80.0-0.0","492","","","","","","","","49","1,0,0","0","city","20","probe-145","0.6578792262789313","0.3538104574483938","0.17714922666064215","1","","","","","","","",""
"","html-keyboard-response","145","771834","0.0-80.0-1.0","null","<p></p>","null","","","","","","","","","","","","","","","","","","","","","","",""
"","do_trial","146","776716","0.0-81.0-0.0","323.2000000178814","","","","","","","","51","0,0,0","0","city","21","probe-55","0.681635432840819","0.058332389280787884","0.21127499072616338","0","","","","","","","",""
"","html-keyboard-response","147","777724","0.0-81.0-1.0","null","<p></p>","null","","","","","","","","","","","","","","","","","","","","","","",""
"","do_trial","148","782593","0.0-82.0-0.0","313.09999999403954","","","","","","","","51","0,1,1","0","city","22","probe-221","0.6024782178319026","0.09235592330398239","0.29798846200682055","1","","","","","","","",""
"","html-keyboard-response","149","783601","0.0-82.0-1.0","null","<p></p>","null","","","","","","","","","","","","","","","","","","","","","","",""
"","do_trial","150","788400","0.0-83.0-0.0","250.90000000596046","","","","","","","","50","0,0,0","0","city","23","probe-128","0.632649883538922","0.2616898621567809","0.20641631775032182","0","","","","","","","",""
"","html-keyboard-response","151","789408","0.0-83.0-1.0","null","<p></p>","null","","","","","","","","","","","","","","","","","","","","","","",""
"","do_trial","152","794275","0.0-84.0-0.0","297.7000000178814","","","","","","","","50","1,0,0","0","city","24","probe-195","0.6434196389395581","0.4603743507832476","0.14129411623212762","0","","","","","","","",""
"","html-keyboard-response","153","795290","0.0-84.0-1.0","null","<p></p>","null","","","","","","","","","","","","","","","","","","","","","","",""
"","do_trial","154","800205","0.0-85.0-0.0","365.7999999821186","","","","","","","","50","0,0,0","0","city","25","probe-197","0.6652491012013964","0.3675895429803945","0.09477276928728358","0","","","","","","","",""
"","html-keyboard-response","155","801215","0.0-85.0-1.0","null","<p></p>","null","","","","","","","","","","","","","","","","","","","","","","",""
"","do_trial","156","806027","0.0-86.0-0.0","252.90000000596046","","","","","","","","49","0,1,0","0","city","26","probe-121","0.7514026973768861","0.4206018842956711","0.08878850414213352","0","","","","","","","",""
"","html-keyboard-response","157","807029","0.0-86.0-1.0","null","<p></p>","null","","","","","","","","","","","","","","","","","","","","","","",""
"","do_trial","158","812286","0.0-87.0-0.0","706.4000000059605","","","","","","","","51","1,1,0","0","city","27","probe-89","0.6427713075037155","0.460724474324469","0.08347174575752174","0","","","","","","","",""
"","html-keyboard-response","159","813288","0.0-87.0-1.0","null","<p></p>","null","","","","","","","","","","","","","","","","","","","","","","",""
"","do_trial","160","818140","0.0-88.0-0.0","300.19999998807907","","","","","","","","49","0,1,0","0","city","28","probe-140","0.6935230578505646","0.3448719795061368","0.16909715721455457","0","","","","","","","",""
"","html-keyboard-response","161","819148","0.0-88.0-1.0","null","<p></p>","null","","","","","","","","","","","","","","","","","","","","","","",""
"","do_trial","162","824050","0.0-89.0-0.0","348.90000000596046","","","","","","","","50","1,0,1","0","city","29","probe-152","0.5869873382617979","0.33036556720217164","0.2154328519379945","0","","","","","","","",""
"","html-keyboard-response","163","825060","0.0-89.0-1.0","null","<p></p>","null","","","","","","","","","","","","","","","","","","","","","","",""
"","do_bye","164","826567","0.0-90.0-0.0","null","","","","","","","","null","","","","","","","","","","","","","","","","",""
"","break","165","896395","0.0-90.0-1.0","69826.69999998808","<div class='center'><p>Time to take a quick break! You have 2 minutes to rest, but you can move on sooner if you'd like.</p><p> Press the <b>space bar</b> to continue.</p></div>","32","","","","","","","","","","","","","","","","","","","","","","",""
"","do_travel","166","905413","0.0-91.0-0.0","null","","","","","","","","null","","","","","","","","","","","","","","","","",""
"","do_welcome","167","909435","0.0-91.0-1.0","null","","","","","","","","null","","","","","","","","","","","","","","","","",""
"","do_trial","168","915156","0.0-92.0-0.0","1167","","","","","","","","49","1,1,0","1","coast","30","probe-50","1","0.34215904327778485","0.0945152202470396","1","","","","","","","",""
"","html-keyboard-response","169","916161","0.0-92.0-1.0","null","<p></p>","null","","","","","","","","","","","","","","","","","","","","","","",""
"","do_trial","170","921135","0.0-93.0-0.0","414.5","","","","","","","","51","1,1,0","1","coast","31","probe-154","1","0.2735943406875733","0.05348383045021507","0","","","","","","","",""
"","html-keyboard-response","171","922146","0.0-93.0-1.0","null","<p></p>","null","","","","","","","","","","","","","","","","","","","","","","",""
"","do_trial","172","927043","0.0-94.0-0.0","335.40000000596046","","","","","","","","50","1,0,0","1","coast","32","probe-192","1","0.2825837051436266","0.09168513677344865","0","","","","","","","",""
"","html-keyboard-response","173","928053","0.0-94.0-1.0","null","<p></p>","null","","","","","","","","","","","","","","","","","","","","","","",""
"","do_trial","174","933183","0.0-95.0-0.0","574.6999999880791","","","","","","","","50","0,1,0","1","coast","33","probe-133","0.8923574020480796","0.33229370150545756","0.08907621780876404","1","","","","","","","",""
"","html-keyboard-response","175","934186","0.0-95.0-1.0","null","<p></p>","null","","","","","","","","","","","","","","","","","","","","","","",""
"","do_trial","176","938990","0.0-96.0-0.0","258.90000000596046","","","","","","","","49","0,1,1","1","coast","34","probe-21","0.801600639844873","0.3429655465173081","0.13097380915810306","0","","","","","","","",""
"","html-keyboard-response","177","939994","0.0-96.0-1.0","null","<p></p>","null","","","","","","","","","","","","","","","","","","","","","","",""
"","do_trial","178","945054","0.0-97.0-0.0","497.2000000178814","","","","","","","","51","1,1,0","1","coast","35","probe-67","0.8266888808782661","0.4449366625015618","0.1974527373422238","0","","","","","","","",""
"","html-keyboard-response","179","946057","0.0-97.0-1.0","null","<p></p>","null","","","","","","","","","","","","","","","","","","","","","","",""
"","do_trial","180","950943","0.0-98.0-0.0","328.2999999821186","","","","","","","","49","1,0,0","1","coast","36","probe-109","0.8189314323773013","0.34928341144824465","0.1203371989556429","1","","","","","","","",""
"","html-keyboard-response","181","951945","0.0-98.0-1.0","null","<p></p>","null","","","","","","","","","","","","","","","","","","","","","","",""
"","do_trial","182","956779","0.0-99.0-0.0","275.19999998807907","","","","","","","","50","1,0,0","1","coast","37","probe-227","0.7695057803142917","0.3455072317696895","0.11720012707193492","0","","","","","","","",""
"","html-keyboard-response","183","957792","0.0-99.0-1.0","null","<p></p>","null","","","","","","","","","","","","","","","","","","","","","","",""
"","do_trial","184","962916","0.0-100.0-0.0","577.0999999940395","","","","","","","","49","1,0,0","1","coast","38","probe-218","0.5858285385556322","0.5435148493683781","0.2394068791504148","1","","","","","","","",""
"","html-keyboard-response","185","963917","0.0-100.0-1.0","null","<p></p>","null","","","","","","","","","","","","","","","","","","","","","","",""
"","do_trial","186","968716","0.0-101.0-0.0","251.59999999403954","","","","","","","","51","1,0,0","1","coast","39","probe-29","0.6244677309919652","0.403561753786706","0.3063418395260986","0","","","","","","","",""
"","html-keyboard-response","187","969723","0.0-101.0-1.0","null","<p></p>","null","","","","","","","","","","","","","","","","","","","","","","",""
"","do_trial","188","975280","0.0-102.0-0.0","1003.4000000059605","","","","","","","","50","0,1,0","1","coast","40","probe-172","0.5828569419619597","0.4315593714200815","0.3995105123725313","1","","","","","","","",""
"","html-keyboard-response","189","976281","0.0-102.0-1.0","null","<p></p>","null","","","","","","","","","","","","","","","","","","","","","","",""
"","do_trial","190","981020","0.0-103.0-0.0","191.09999999403954","","","","","","","","49","0,1,0","1","coast","41","probe-26","0.5608431346553273","0.3254816167025978","0.36295511769929156","0","","","","","","","",""
"","html-keyboard-response","191","982032","0.0-103.0-1.0","null","<p></p>","null","","","","","","","","","","","","","","","","","","","","","","",""
"","do_trial","192","986918","0.0-104.0-0.0","320.09999999403954","","","","","","","","51","0,1,0","1","coast","42","probe-04","0.42140270487479575","0.3478210108052457","0.46485124554696755","0","","","","","","","",""
"","html-keyboard-response","193","987919","0.0-104.0-1.0","null","<p></p>","null","","","","","","","","","","","","","","","","","","","","","","",""
"","do_trial","194","993262","0.0-105.0-0.0","795.2999999821186","","","","","","","","50","0,1,1","1","coast","43","probe-99","0.4134431664667567","0.11481091061887318","0.4814171433269027","1","","","","","","","",""
"","html-keyboard-response","195","994274","0.0-105.0-1.0","null","<p></p>","null","","","","","","","","","","","","","","","","","","","","","","",""
"","do_trial","196","999435","0.0-106.0-0.0","614.5","","","","","","","","49","0,0,1","1","coast","44","probe-61","0.2643511163386521","0.11452213388424255","0.5114245053619944","0","","","","","","","",""
"","html-keyboard-response","197","1000452","0.0-106.0-1.0","null","<p></p>","null","","","","","","","","","","","","","","","","","","","","","","",""
"","do_trial","198","1005550","0.0-107.0-0.0","549.5","","","","","","","","51","1,0,1","1","coast","45","probe-42","0.3294856776997979","0.07483289065689151","0.5832663017274978","1","","","","","","","",""
"","html-keyboard-response","199","1006565","0.0-107.0-1.0","null","<p></p>","null","","","","","","","","","","","","","","","","","","","","","","",""
"","do_trial","200","1011333","0.0-108.0-0.0","205.60000002384186","","","","","","","","50","0,0,1","1","coast","46","probe-103","0.19143834791417746","0.07522054538577908","0.6800398895452432","0","","","","","","","",""
"","html-keyboard-response","201","1012345","0.0-108.0-1.0","null","<p></p>","null","","","","","","","","","","","","","","","","","","","","","","",""
"","do_trial","202","1017129","0.0-109.0-0.0","224.80000001192093","","","","","","","","50","0,0,1","1","coast","47","probe-39","0.15120854326329083","0.14729499968298906","0.8266888655723886","0","","","","","","","",""
"","html-keyboard-response","203","1018131","0.0-109.0-1.0","null","<p></p>","null","","","","","","","","","","","","","","","","","","","","","","",""
"","do_trial","204","1022895","0.0-110.0-0.0","220.7000000178814","","","","","","","","49","0,0,1","1","coast","48","probe-108","0.13262630965789438","0.06643463428093804","0.8666515318503492","0","","","","","","","",""
"","html-keyboard-response","205","1023903","0.0-110.0-1.0","null","<p></p>","null","","","","","","","","","","","","","","","","","","","","","","",""
"","do_trial","206","1028810","0.0-111.0-0.0","351.2000000178814","","","","","","","","51","0,0,1","1","coast","49","probe-44","0.20064315650707837","0.05849761758073454","0.7749010995179519","1","","","","","","","",""
"","html-keyboard-response","207","1029812","0.0-111.0-1.0","null","<p></p>","null","","","","","","","","","","","","","","","","","","","","","","",""
"","do_trial","208","1035421","0.0-112.0-0.0","1066.8999999761581","","","","","","","","50","0,0,0","1","coast","50","probe-86","0.24140395940163523","0.07576530598999753","0.7121327945991724","0","","","","","","","",""
"","html-keyboard-response","209","1036432","0.0-112.0-1.0","null","<p></p>","null","","","","","","","","","","","","","","","","","","","","","","",""
"","do_trial","210","1040980","0.0-113.0-0.0","0.10000002384185791","","","","","","","","51","0,0,1","1","coast","51","probe-85","0.3253995021305488","0.2068262123244222","0.7380314113387553","1","","","","","","","",""
"","html-keyboard-response","211","1041985","0.0-113.0-1.0","null","<p></p>","null","","","","","","","","","","","","","","","","","","","","","","",""
"","do_trial","212","1046626","0.0-114.0-0.0","85.2999999821186","","","","","","","","50","0,0,1","1","coast","52","probe-205","0.05750935345788129","0.214904763670912","0.7101096298617866","0","","","","","","","",""
"","html-keyboard-response","213","1047634","0.0-114.0-1.0","null","<p></p>","null","","","","","","","","","","","","","","","","","","","","","","",""
"","do_trial","214","1052473","0.0-115.0-0.0","288.90000000596046","","","","","","","","49","1,0,1","1","coast","53","probe-62","0.22386314737818397","0.26956890412967516","0.6438103278313939","1","","","","","","","",""
"","html-keyboard-response","215","1053486","0.0-115.0-1.0","null","<p></p>","null","","","","","","","","","","","","","","","","","","","","","","",""
"","do_trial","216","1058100","0.0-116.0-0.0","53.400000005960464","","","","","","","","51","1,1,1","1","coast","54","probe-158","0.22041942226123007","0.30545387225261533","0.5302214470600871","1","","","","","","","",""
"","html-keyboard-response","217","1059114","0.0-116.0-1.0","null","<p></p>","null","","","","","","","","","","","","","","","","","","","","","","",""
"","do_trial","218","1063981","0.0-117.0-0.0","311.39999997615814","","","","","","","","49","0,0,1","1","coast","55","probe-02","0.305091983316686","0.2972331924460083","0.5477856739905074","0","","","","","","","",""
"","html-keyboard-response","219","1064983","0.0-117.0-1.0","null","<p></p>","null","","","","","","","","","","","","","","","","","","","","","","",""
"","do_trial","220","1070105","0.0-118.0-0.0","559.7999999821186","","","","","","","","50","0,1,0","1","coast","56","probe-186","0.2218510468162777","0.18442928603403996","0.5511644695143868","1","","","","","","","",""
"","html-keyboard-response","221","1071114","0.0-118.0-1.0","null","<p></p>","null","","","","","","","","","","","","","","","","","","","","","","",""
"","do_trial","222","1076174","0.0-119.0-0.0","516.5","","","","","","","","51","0,0,1","1","coast","57","probe-228","0.22415085402985738","0.08207753733677553","0.42416059851614896","1","","","","","","","",""
"","html-keyboard-response","223","1077186","0.0-119.0-1.0","null","<p></p>","null","","","","","","","","","","","","","","","","","","","","","","",""
"","do_trial","224","1081999","0.0-120.0-0.0","261.40000000596046","","","","","","","","50","0,0,1","1","coast","58","probe-17","0.2563984735737307","0.07368102226164332","0.5337821634798915","0","","","","","","","",""
"","html-keyboard-response","225","1083012","0.0-120.0-1.0","null","<p></p>","null","","","","","","","","","","","","","","","","","","","","","","",""
"","do_trial","226","1087585","0.0-121.0-0.0","29.400000005960464","","","","","","","","51","0,0,0","1","coast","59","probe-202","0.20217616472970246","0.09491753363087269","0.469423563142548","0","","","","","","","",""
"","html-keyboard-response","227","1088592","0.0-121.0-1.0","null","<p></p>","null","","","","","","","","","","","","","","","","","","","","","","",""
"","do_trial","228","1094628","0.0-122.0-0.0","1487.5","","","","","","","","51","0,0,1","1","coast","60","probe-07","0.38181186248178933","0.1816222778638439","0.4844756153253642","1","","","","","","","",""
"","html-keyboard-response","229","1095641","0.0-122.0-1.0","null","<p></p>","null","","","","","","","","","","","","","","","","","","","","","","",""
"","do_trial","230","1100558","0.0-123.0-0.0","359.5","","","","","","","","50","0,0,1","1","coast","61","probe-176","0.4010097098905836","0.13950491350905408","0.46833811709882545","0","","","","","","","",""
"","html-keyboard-response","231","1101561","0.0-123.0-1.0","null","<p></p>","null","","","","","","","","","","","","","","","","","","","","","","",""
"","do_trial","232","1106289","0.0-124.0-0.0","177.69999998807907","","","","","","","","51","0,0,1","1","coast","62","probe-60","0.3700957293496843","0.11593857504135806","0.5206231376609215","1","","","","","","","",""
"","html-keyboard-response","233","1107300","0.0-124.0-1.0","null","<p></p>","null","","","","","","","","","","","","","","","","","","","","","","",""
"","do_trial","234","1112161","0.0-125.0-0.0","300.90000000596046","","","","","","","","49","0,0,0","1","coast","63","probe-54","0.27049214270262545","0.1068696979822727","0.440197459839749","0","","","","","","","",""
"","html-keyboard-response","235","1113174","0.0-125.0-1.0","null","<p></p>","null","","","","","","","","","","","","","","","","","","","","","","",""
"","do_trial","236","1119479","0.0-126.0-0.0","1747.9000000059605","","","","","","","","51","0,0,1","1","coast","64","probe-178","0.2839672459239184","0.06758468146356336","0.6350117642696713","1","","","","","","","",""
"","html-keyboard-response","237","1120485","0.0-126.0-1.0","null","<p></p>","null","","","","","","","","","","","","","","","","","","","","","","",""
"","do_trial","238","1125260","0.0-127.0-0.0","231.5","","","","","","","","50","0,0,1","1","coast","65","probe-201","0.15156652827343053","0.07028355089706502","0.5244014736674948","0","","","","","","","",""
"","html-keyboard-response","239","1126262","0.0-127.0-1.0","null","<p></p>","null","","","","","","","","","","","","","","","","","","","","","","",""
"","do_trial","240","1131082","0.0-128.0-0.0","274.09999999403954","","","","","","","","49","0,0,0","1","coast","66","probe-153","0.21997743583565277","0.1297419209375734","0.48515104407366993","0","","","","","","","",""
"","html-keyboard-response","241","1132093","0.0-128.0-1.0","null","<p></p>","null","","","","","","","","","","","","","","","","","","","","","","",""
"","do_trial","242","1136936","0.0-129.0-0.0","289.89999997615814","","","","","","","","51","0,0,1","1","coast","67","probe-119","0.25477164187599144","0.191636213994296","0.45810398604339525","1","","","","","","","",""
"","html-keyboard-response","243","1137945","0.0-129.0-1.0","null","<p></p>","null","","","","","","","","","","","","","","","","","","","","","","",""
"","do_trial","244","1142507","0.0-130.0-0.0","0.09999999403953552","","","","","","","","50","1,0,0","1","coast","68","probe-147","0.27040410995173175","0.10795535364800776","0.4713965753094798","0","","","","","","","",""
"","html-keyboard-response","245","1143522","0.0-130.0-1.0","null","<p></p>","null","","","","","","","","","","","","","","","","","","","","","","",""
"","do_trial","246","1148827","0.0-131.0-0.0","746.3000000119209","","","","","","","","50","0,0,1","1","coast","69","probe-149","0.2998911408119647","0.09490203790231175","0.51266089114635","0","","","","","","","",""
"","html-keyboard-response","247","1149833","0.0-131.0-1.0","null","<p></p>","null","","","","","","","","","","","","","","","","","","","","","","",""
"","do_bye","248","1151345","0.0-132.0-0.0","null","","","","","","","","null","","","","","","","","","","","","","","","","",""
"","break","249","1271347","0.0-132.0-1.0","null","<div class='center'><p>Time to take a quick break! You have 2 minutes to rest, but you can move on sooner if you'd like.</p><p> Press the <b>space bar</b> to continue.</p></div>","null","","","","","","","","","","","","","","","","","","","","","","",""
"","do_travel","250","1280356","0.0-133.0-0.0","null","","","","","","","","null","","","","","","","","","","","","","","","","",""
"","do_welcome","251","1284362","0.0-133.0-1.0","null","","","","","","","","null","","","","","","","","","","","","","","","","",""
"","do_trial","252","1289767","0.0-134.0-0.0","847.2999999821186","","","","","","","","50","0,1,1","2","countryside","70","probe-35","0.24709035318093336","0.0997217374782137","1","1","","","","","","","",""
"","html-keyboard-response","253","1290774","0.0-134.0-1.0","null","<p></p>","null","","","","","","","","","","","","","","","","","","","","","","",""
"","do_trial","254","1295351","0.0-135.0-0.0","27.299999982118607","","","","","","","","51","0,0,1","2","countryside","71","probe-10","0.38667354559468076","0.05207804410895499","1","1","","","","","","","",""
"","html-keyboard-response","255","1296353","0.0-135.0-1.0","null","<p></p>","null","","","","","","","","","","","","","","","","","","","","","","",""
"","do_trial","256","1301328","0.0-136.0-0.0","420.59999999403954","","","","","","","","50","0,0,1","2","countryside","72","probe-18","0.32915787062922586","0.07953987951781165","0.8729922541404548","0","","","","","","","",""
"","html-keyboard-response","257","1302330","0.0-136.0-1.0","null","<p></p>","null","","","","","","","","","","","","","","","","","","","","","","",""
"","do_trial","258","1307384","0.0-137.0-0.0","495","","","","","","","","51","0,1,1","2","countryside","73","probe-124","0.32222051605410956","0.0804011816360081","0.7496356988684704","1","","","","","","","",""
"","html-keyboard-response","259","1308397","0.0-137.0-1.0","null","<p></p>","null","","","","","","","","","","","","","","","","","","","","","","",""
"","do_trial","260","1313599","0.0-138.0-0.0","647.8000000119209","","","","","","","","50","1,0,1","2","countryside","74","probe-05","0.3659936948410251","0.07951888220997128","0.6764130905351305","0","","","","","","","",""
"","html-keyboard-response","261","1314612","0.0-138.0-1.0","null","<p></p>","null","","","","","","","","","","","","","","","","","","","","","","",""
"","do_trial","262","1319171","0.0-139.0-0.0","0.09999999403953552","","","","","","","","51","0,0,1","2","countryside","75","probe-223","0.19244996301525774","0.16618929167530985","0.7379673252247422","1","","","","","","","",""
"","html-keyboard-response","263","1320181","0.0-139.0-1.0","null","<p></p>","null","","","","","","","","","","","","","","","","","","","","","","",""
"","do_trial","264","1325437","0.0-140.0-0.0","699.8000000119209","","","","","","","","50","0,0,1","2","countryside","76","probe-70","0.21435623099773957","0.2084973564108421","0.6697332914090789","0","","","","","","","",""
"","html-keyboard-response","265","1326449","0.0-140.0-1.0","null","<p></p>","null","","","","","","","","","","","","","","","","","","","","","","",""
"","do_trial","266","1331736","0.0-141.0-0.0","729.0999999940395","","","","","","","","51","0,0,0","2","countryside","77","probe-219","0.18416932001351008","0.1824218737556812","0.6224078477559777","0","","","","","","","",""
"","html-keyboard-response","267","1332743","0.0-141.0-1.0","null","<p></p>","null","","","","","","","","","","","","","","","","","","","","","","",""
"","do_trial","268","1337467","0.0-142.0-0.0","163.89999997615814","","","","","","","","50","0,0,1","2","countryside","78","probe-91","0.2751519394037373","0.13123032448854446","0.6753336218735434","0","","","","","","","",""
"","html-keyboard-response","269","1338477","0.0-142.0-1.0","null","<p></p>","null","","","","","","","","","","","","","","","","","","","","","","",""
"","do_trial","270","1343312","0.0-143.0-0.0","275.89999997615814","","","","","","","","51","0,0,1","2","countryside","79","probe-83","0.21793365758024075","0.12639365380857698","0.7239977570149496","1","","","","","","","",""
"","html-keyboard-response","271","1344315","0.0-143.0-1.0","null","<p></p>","null","","","","","","","","","","","","","","","","","","","","","","",""
"","do_trial","272","1348896","0.0-144.0-0.0","34.599999994039536","","","","","","","","51","0,0,1","2","countryside","80","probe-40","0.1366049569216252","0.33203521109098333","0.7809785070578563","1","","","","","","","",""
"","html-keyboard-response","273","1349908","0.0-144.0-1.0","null","<p></p>","null","","","","","","","","","","","","","","","","","","","","","","",""
"","do_trial","274","1354453","0.0-145.0-0.0","0.19999998807907104","","","","","","","","51","0,1,1","2","countryside","81","probe-33","0.0846970385844274","0.3336024946080559","0.9425920177049725","1","","","","","","","",""
"","html-keyboard-response","275","1355465","0.0-145.0-1.0","null","<p></p>","null","","","","","","","","","","","","","","","","","","","","","","",""
"","do_trial","276","1360026","0.0-146.0-0.0","0.20000001788139343","","","","","","","","51","0,0,0","2","countryside","82","probe-32","0.12681438742570716","0.4094676194501917","0.5354100873144705","0","","","","","","","",""
"","html-keyboard-response","277","1361041","0.0-146.0-1.0","null","<p></p>","null","","","","","","","","","","","","","","","","","","","","","","",""
"","do_trial","278","1365635","0.0-147.0-0.0","39","","","","","","","","50","1,0,0","2","countryside","83","probe-159","0.2216624917844063","0.4678726606504009","0.2658950251544044","0","","","","","","","",""
"","html-keyboard-response","279","1366642","0.0-147.0-1.0","null","<p></p>","null","","","","","","","","","","","","","","","","","","","","","","",""
"","do_trial","280","1371465","0.0-148.0-0.0","285.39999997615814","","","","","","","","50","1,0,1","2","countryside","84","probe-155","0.2942412729662611","0.4551662276579249","0.16974754642334108","0","","","","","","","",""
"","html-keyboard-response","281","1372479","0.0-148.0-1.0","null","<p></p>","null","","","","","","","","","","","","","","","","","","","","","","",""
"","do_trial","282","1377103","0.0-149.0-0.0","60","","","","","","","","51","1,0,0","2","countryside","85","probe-136","0.3466097862249242","0.4103928252834706","0.08590410123531746","0","","","","","","","",""
"","html-keyboard-response","283","1378117","0.0-149.0-1.0","null","<p></p>","null","","","","","","","","","","","","","","","","","","","","","","",""
"","do_trial","284","1383151","0.0-150.0-0.0","476.10000002384186","","","","","","","","50","0,0,0","2","countryside","86","probe-114","0.3742082690857309","0.4439918613191152","0.1990078466766849","0","","","","","","","",""
"","html-keyboard-response","285","1384160","0.0-150.0-1.0","null","<p></p>","null","","","","","","","","","","","","","","","","","","","","","","",""
"","do_trial","286","1390799","0.0-151.0-0.0","2095.300000011921","","","","","","","","50","0,1,0","2","countryside","87","probe-93","0.5029696159766717","0.633008217937468","0.325805840121654","1","","","","","","","",""
"","html-keyboard-response","287","1391807","0.0-151.0-1.0","null","<p></p>","null","","","","","","","","","","","","","","","","","","","","","","",""
"","do_trial","288","1396904","0.0-152.0-0.0","538.2000000178814","","","","","","","","50","1,1,1","2","countryside","88","probe-14","0.5379595417612194","0.7539331368845862","0.22259618605529002","1","","","","","","","",""
"","html-keyboard-response","289","1397913","0.0-152.0-1.0","null","<p></p>","null","","","","","","","","","","","","","","","","","","","","","","",""
"","do_trial","290","1402574","0.0-153.0-0.0","108","","","","","","","","51","1,0,0","2","countryside","89","probe-27","0.5422008313975204","0.6031951996824535","0.17591783140189257","0","","","","","","","",""
"","html-keyboard-response","291","1403585","0.0-153.0-1.0","null","<p></p>","null","","","","","","","","","","","","","","","","","","","","","","",""
"","do_trial","292","1408147","0.0-154.0-0.0","3.0999999940395355","","","","","","","","49","1,1,0","2","countryside","90","probe-101","0.44145412418841223","0.6422613609418367","0.12375556627897207","1","","","","","","","",""
"","html-keyboard-response","293","1409153","0.0-154.0-1.0","null","<p></p>","null","","","","","","","","","","","","","","","","","","","","","","",""
"","do_trial","294","1414384","0.0-155.0-0.0","683","","","","","","","","51","1,0,0","2","countryside","91","probe-189","0.3025645573907605","0.5426061373721528","0.12965780221914014","0","","","","","","","",""
"","html-keyboard-response","295","1415397","0.0-155.0-1.0","null","<p></p>","null","","","","","","","","","","","","","","","","","","","","","","",""
"","do_trial","296","1420661","0.0-156.0-0.0","708.0999999940395","","","","","","","","50","1,0,0","2","countryside","92","probe-63","0.33097888132934783","0.5812769235244035","0.22859993420637734","0","","","","","","","",""
"","html-keyboard-response","297","1421667","0.0-156.0-1.0","null","<p></p>","null","","","","","","","","","","","","","","","","","","","","","","",""
"","do_trial","298","1427309","0.0-157.0-0.0","1086.4000000059605","","","","","","","","49","1,0,0","2","countryside","93","probe-36","0.3348662700088451","0.4926371323776692","0.25816317201854166","1","","","","","","","",""
"","html-keyboard-response","299","1428318","0.0-157.0-1.0","null","<p></p>","null","","","","","","","","","","","","","","","","","","","","","","",""
"","do_trial","300","1432888","0.0-158.0-0.0","0.5","","","","","","","","51","0,0,0","2","countryside","94","probe-198","0.32145472054113156","0.5288296710884277","0.2764409739200667","0","","","","","","","",""
"","html-keyboard-response","301","1433902","0.0-158.0-1.0","null","<p></p>","null","","","","","","","","","","","","","","","","","","","","","","",""
"","do_trial","302","1438535","0.0-159.0-0.0","87.59999999403954","","","","","","","","51","0,1,0","2","countryside","95","probe-190","0.3650154093026967","0.6292184492862681","0.13452604674895796","0","","","","","","","",""
"","html-keyboard-response","303","1439549","0.0-159.0-1.0","null","<p></p>","null","","","","","","","","","","","","","","","","","","","","","","",""
"","do_trial","304","1444420","0.0-160.0-0.0","317","","","","","","","","50","0,0,0","2","countryside","96","probe-24","0.30761126770071273","0.5563367509167185","0.1333818718215397","0","","","","","","","",""
"","html-keyboard-response","305","1445433","0.0-160.0-1.0","null","<p></p>","null","","","","","","","","","","","","","","","","","","","","","","",""
"","do_trial","306","1450450","0.0-161.0-0.0","464.30000001192093","","","","","","","","51","0,1,1","2","countryside","97","probe-22","0.3227414818359655","0.5860620400499496","0.10151321091167434","1","","","","","","","",""
"","html-keyboard-response","307","1451463","0.0-161.0-1.0","null","<p></p>","null","","","","","","","","","","","","","","","","","","","","","","",""
"","do_trial","308","1456271","0.0-162.0-0.0","252.40000000596046","","","","","","","","50","0,1,1","2","countryside","98","probe-52","0.3570106688161769","0.6610505280872094","0.11928712017934809","1","","","","","","","",""
"","html-keyboard-response","309","1457284","0.0-162.0-1.0","null","<p></p>","null","","","","","","","","","","","","","","","","","","","","","","",""
"","do_trial","310","1461920","0.0-163.0-0.0","89.90000000596046","","","","","","","","51","0,1,1","2","countryside","99","probe-146","0.4308352701754245","0.5808017349583313","0.24132850805696926","1","","","","","","","",""
"","html-keyboard-response","311","1462926","0.0-163.0-1.0","null","<p></p>","null","","","","","","","","","","","","","","","","","","","","","","",""
"","do_trial","312","1468249","0.0-164.0-0.0","771.9000000059605","","","","","","","","51","1,1,0","2","countryside","100","probe-15","0.34285774476968156","0.6573701904432413","0.13673859924637485","0","","","","","","","",""
"","html-keyboard-response","313","1469257","0.0-164.0-1.0","null","<p></p>","null","","","","","","","","","","","","","","","","","","","","","","",""
"","do_trial","314","1473880","0.0-165.0-0.0","59.70000001788139","","","","","","","","49","0,0,0","2","countryside","101","probe-169","0.2189092192575619","0.6259154281409891","0.12725805232411475","0","","","","","","","",""
"","html-keyboard-response","315","1474882","0.0-165.0-1.0","null","<p></p>","null","","","","","","","","","","","","","","","","","","","","","","",""
"","do_trial","316","1480198","0.0-166.0-0.0","760.3000000119209","","","","","","","","50","0,0,0","2","countryside","102","probe-173","0.30486067529948596","0.5595744038951417","0.09692839175494024","0","","","","","","","",""
"","html-keyboard-response","317","1481207","0.0-166.0-1.0","null","<p></p>","null","","","","","","","","","","","","","","","","","","","","","","",""
"","do_trial","318","1485831","0.0-167.0-0.0","75.40000000596046","","","","","","","","49","1,1,1","2","countryside","103","probe-30","0.2856293132312442","0.6767511468487275","0.27290981726969943","1","","","","","","","",""
"","html-keyboard-response","319","1486840","0.0-167.0-1.0","null","<p></p>","null","","","","","","","","","","","","","","","","","","","","","","",""
"","do_trial","320","1492903","0.0-168.0-0.0","null","","","","","","","","null","0,1,0","2","countryside","104","probe-157","0.22740956120054712","0.7332412834322359","0.18376880850538807","","","","","","","","",""
"","html-keyboard-response","321","1493919","0.0-168.0-1.0","null","<p></p>","null","","","","","","","","","","","","","","","","","","","","","","",""
"","do_trial","322","1498534","0.0-169.0-0.0","63.599999994039536","","","","","","","","49","1,1,1","2","countryside","105","probe-229","0.3446336731965048","0.683317594555581","0.21779325442015332","1","","","","","","","",""
"","html-keyboard-response","323","1499542","0.0-169.0-1.0","null","<p></p>","null","","","","","","","","","","","","","","","","","","","","","","",""
"","do_trial","324","1504089","0.0-170.0-0.0","0.09999999403953552","","","","","","","","49","0,1,0","2","countryside","106","probe-49","0.3567371056565494","0.6992063017160292","0.13985620631283133","0","","","","","","","",""
"","html-keyboard-response","325","1505096","0.0-170.0-1.0","null","<p></p>","null","","","","","","","","","","","","","","","","","","","","","","",""
"","do_trial","326","1509716","0.0-171.0-0.0","67.5","","","","","","","","51","0,1,0","2","countryside","107","probe-122","0.26476369145850526","0.7887540258538444","0.18493975566152915","0","","","","","","","",""
"","html-keyboard-response","327","1510729","0.0-171.0-1.0","null","<p></p>","null","","","","","","","","","","","","","","","","","","","","","","",""
"","do_trial","328","1515310","0.0-172.0-0.0","23.80000001192093","","","","","","","","50","0,0,0","2","countryside","108","probe-87","0.23069870782566024","0.6285703691450591","0.2503736498136117","0","","","","","","","",""
"","html-keyboard-response","329","1516324","0.0-172.0-1.0","null","<p></p>","null","","","","","","","","","","","","","","","","","","","","","","",""
"","do_trial","330","1520873","0.0-173.0-0.0","0.09999999403953552","","","","","","","","51","0,1,1","2","countryside","109","probe-220","0.26009870520312656","0.663740347252512","0.2869609383861787","1","","","","","","","",""
"","html-keyboard-response","331","1521880","0.0-173.0-1.0","null","<p></p>","null","","","","","","","","","","","","","","","","","","","","","","",""
"","do_bye","332","1523388","0.0-174.0-0.0","null","","","","","","","","null","","","","","","","","","","","","","","","","",""
"","break","333","1643398","0.0-174.0-1.0","null","<div class='center'><p>Time to take a quick break! You have 2 minutes to rest, but you can move on sooner if you'd like.</p><p> Press the <b>space bar</b> to continue.</p></div>","null","","","","","","","","","","","","","","","","","","","","","","",""
"","do_travel","334","1652415","0.0-175.0-0.0","null","","","","","","","","null","","","","","","","","","","","","","","","","",""
"","do_welcome","335","1656432","0.0-175.0-1.0","null","","","","","","","","null","","","","","","","","","","","","","","","","",""
"","do_trial","336","1662577","0.0-176.0-0.0","1579.9000000059605","","","","","","","","50","1,1,0","3","highway","110","probe-216","0.08059248023744665","1","0.2661085704264745","1","","","","","","","",""
"","html-keyboard-response","337","1663589","0.0-176.0-1.0","null","<p></p>","null","","","","","","","","","","","","","","","","","","","","","","",""
"","do_trial","338","1668214","0.0-177.0-0.0","65.60000002384186","","","","","","","","49","0,1,1","3","highway","111","probe-134","0.0913609399785706","1","0.2755684191947288","0","","","","","","","",""
"","html-keyboard-response","339","1669224","0.0-177.0-1.0","null","<p></p>","null","","","","","","","","","","","","","","","","","","","","","","",""
"","do_trial","340","1674278","0.0-178.0-0.0","504.69999998807907","","","","","","","","51","0,1,0","3","highway","112","probe-88","0.12211224471063173","0.8217221322397046","0.3492509635658816","0","","","","","","","",""
"","html-keyboard-response","341","1675286","0.0-178.0-1.0","null","<p></p>","null","","","","","","","","","","","","","","","","","","","","","","",""
"","do_trial","342","1679861","0.0-179.0-0.0","29.700000017881393","","","","","","","","51","0,0,0","3","highway","113","probe-150","0.21468997956446806","0.7345390841488958","0.3085260296890941","0","","","","","","","",""
"","html-keyboard-response","343","1680876","0.0-179.0-1.0","null","<p></p>","null","","","","","","","","","","","","","","","","","","","","","","",""
"","do_trial","344","1685543","0.0-180.0-0.0","103.7000000178814","","","","","","","","51","1,0,0","3","highway","114","probe-129","0.3040392087547523","0.6841630404935494","0.22906186749804833","0","","","","","","","",""
"","html-keyboard-response","345","1686556","0.0-180.0-1.0","null","<p></p>","null","","","","","","","","","","","","","","","","","","","","","","",""
"","do_trial","346","1691154","0.0-181.0-0.0","44.400000005960464","","","","","","","","50","1,0,0","3","highway","115","probe-72","0.3615240764877251","0.7263740451306865","0.18760306063367294","0","","","","","","","",""
"","html-keyboard-response","347","1692169","0.0-181.0-1.0","null","<p></p>","null","","","","","","","","","","","","","","","","","","","","","","",""
"","do_trial","348","1696749","0.0-182.0-0.0","28.299999982118607","","","","","","","","51","1,1,0","3","highway","116","probe-37","0.42235735026426596","0.6619517060721216","0.15296510302724442","0","","","","","","","",""
"","html-keyboard-response","349","1697755","0.0-182.0-1.0","null","<p></p>","null","","","","","","","","","","","","","","","","","","","","","","",""
"","do_trial","350","1702311","0.0-183.0-0.0","10.099999994039536","","","","","","","","49","0,0,0","3","highway","117","probe-116","0.3171449904975137","0.6053499834384922","0.19158556252114245","0","","","","","","","",""
"","html-keyboard-response","351","1703319","0.0-183.0-1.0","null","<p></p>","null","","","","","","","","","","","","","","","","","","","","","","",""
"","do_trial","352","1707874","0.0-184.0-0.0","9.600000023841858","","","","","","","","51","0,1,0","3","highway","118","probe-185","0.15525167137088333","0.6974262525516878","0.22780417376252018","0","","","","","","","",""
"","html-keyboard-response","353","1708886","0.0-184.0-1.0","null","<p></p>","null","","","","","","","","","","","","","","","","","","","","","","",""
"","do_trial","354","1713462","0.0-185.0-0.0","36","","","","","","","","51","0,1,0","3","highway","119","probe-160","0.20282140554439074","0.7288645963505381","0.24705691174610386","0","","","","","","","",""
"","html-keyboard-response","355","1714475","0.0-185.0-1.0","null","<p></p>","null","","","","","","","","","","","","","","","","","","","","","","",""
"","do_trial","356","1719034","0.0-186.0-0.0","0.09999999403953552","","","","","","","","50","1,1,0","3","highway","120","probe-81","0.2563253484128793","0.8123255969143364","0.19350828981972817","1","","","","","","","",""
"","html-keyboard-response","357","1720043","0.0-186.0-1.0","null","<p></p>","null","","","","","","","","","","","","","","","","","","","","","","",""
"","do_trial","358","1724595","0.0-187.0-0.0","0.09999999403953552","","","","","","","","50","1,1,1","3","highway","121","probe-46","0.22733018604656643","0.7772492760976571","0.18454431579633568","1","","","","","","","",""
"","html-keyboard-response","359","1725608","0.0-187.0-1.0","null","<p></p>","null","","","","","","","","","","","","","","","","","","","","","","",""
"","do_trial","360","1730155","0.0-188.0-0.0","0.20000001788139343","","","","","","","","50","0,0,1","3","highway","122","probe-123","0.42726576858581633","0.6077169543213952","0.22973100446224076","0","","","","","","","",""
"","html-keyboard-response","361","1731160","0.0-188.0-1.0","null","<p></p>","null","","","","","","","","","","","","","","","","","","","","","","",""
"","do_trial","362","1735848","0.0-189.0-0.0","129","","","","","","","","51","0,0,0","3","highway","123","probe-120","0.438755384176231","0.4928445305305877","0.20074377470948485","0","","","","","","","",""
"","html-keyboard-response","363","1736857","0.0-189.0-1.0","null","<p></p>","null","","","","","","","","","","","","","","","","","","","","","","",""
"","do_trial","364","1741516","0.0-190.0-0.0","118.5","","","","","","","","50","0,0,0","3","highway","124","probe-117","0.39302424892189763","0.2620978815787342","0.17736198593111238","0","","","","","","","",""
"","html-keyboard-response","365","1742528","0.0-190.0-1.0","null","<p></p>","null","","","","","","","","","","","","","","","","","","","","","","",""
"","do_trial","366","1747240","0.0-191.0-0.0","111.19999998807907","","","","","","","","50","0,0,0","3","highway","125","probe-25","0.48721708435923894","0.3574546862067814","0.2899446274607459","0","","","","","","","",""
"","html-keyboard-response","367","1748253","0.0-191.0-1.0","null","<p></p>","null","","","","","","","","","","","","","","","","","","","","","","",""
"","do_trial","368","1752990","0.0-192.0-0.0","175.7999999821186","","","","","","","","49","0,0,1","3","highway","126","probe-180","0.5241745071984568","0.3425674642349808","0.11374074060537208","0","","","","","","","",""
"","html-keyboard-response","369","1754005","0.0-192.0-1.0","null","<p></p>","null","","","","","","","","","","","","","","","","","","","","","","",""
"","do_trial","370","1758588","0.0-193.0-0.0","33.5","","","","","","","","50","0,1,0","3","highway","127","probe-74","0.4629682663496519","0.25579705530205954","0.13499534262913068","1","","","","","","","",""
"","html-keyboard-response","371","1759601","0.0-193.0-1.0","null","<p></p>","null","","","","","","","","","","","","","","","","","","","","","","",""
"","do_trial","372","1764143","0.0-194.0-0.0","0","","","","","","","","51","0,0,0","3","highway","128","probe-13","0.5194412156059796","0.31386278095345677","0.10527489993135472","0","","","","","","","",""
"","html-keyboard-response","373","1765151","0.0-194.0-1.0","null","<p></p>","null","","","","","","","","","","","","","","","","","","","","","","",""
"","do_trial","374","1769694","0.0-195.0-0.0","0","","","","","","","","50","1,0,0","3","highway","129","probe-113","0.4374449094403478","0.286104650214326","0.09841828348073875","0","","","","","","","",""
"","html-keyboard-response","375","1770702","0.0-195.0-1.0","null","<p></p>","null","","","","","","","","","","","","","","","","","","","","","","",""
"","do_trial","376","1775258","0.0-196.0-0.0","0.4000000059604645","","","","","","","","51","0,0,0","3","highway","130","probe-137","0.5304143202859396","0.11315361807066314","0.12021224402146181","0","","","","","","","",""
"","html-keyboard-response","377","1776269","0.0-196.0-1.0","null","<p></p>","null","","","","","","","","","","","","","","","","","","","","","","",""
"","do_trial","378","1780940","0.0-197.0-0.0","127.69999998807907","","","","","","","","50","1,0,1","3","highway","131","probe-75","0.5591318647601203","0.1472893847134017","0.3246773795202811","0","","","","","","","",""
"","html-keyboard-response","379","1781945","0.0-197.0-1.0","null","<p></p>","null","","","","","","","","","","","","","","","","","","","","","","",""
"","do_trial","380","1786497","0.0-198.0-0.0","0","","","","","","","","50","1,0,0","3","highway","132","probe-34","0.7599445939560648","0.15835105112964276","0.3429195135580625","0","","","","","","","",""
"","html-keyboard-response","381","1787509","0.0-198.0-1.0","null","<p></p>","null","","","","","","","","","","","","","","","","","","","","","","",""
"","do_trial","382","1792102","0.0-199.0-0.0","40.80000001192093","","","","","","","","51","0,1,0","3","highway","133","probe-188","0.7057622531209419","0.1759279074988202","0.2637508286454017","0","","","","","","","",""
"","html-keyboard-response","383","1793115","0.0-199.0-1.0","null","<p></p>","null","","","","","","","","","","","","","","","","","","","","","","",""
"","do_trial","384","1797718","0.0-200.0-0.0","44.29999998211861","","","","","","","","51","0,1,0","3","highway","134","probe-96","0.6616817414770861","0.2205117966083077","0.2232308276546773","0","","","","","","","",""
"","html-keyboard-response","385","1798732","0.0-200.0-1.0","null","<p></p>","null","","","","","","","","","","","","","","","","","","","","","","",""
"","do_trial","386","1803282","0.0-201.0-0.0","0.09999999403953552","","","","","","","","50","1,1,0","3","highway","135","probe-127","0.5208275637285603","0.21392602046137776","0.3234572694389434","1","","","","","","","",""
"","html-keyboard-response","387","1804299","0.0-201.0-1.0","null","<p></p>","null","","","","","","","","","","","","","","","","","","","","","","",""
"","do_trial","388","1808875","0.0-202.0-0.0","14.699999988079071","","","","","","","","50","0,0,0","3","highway","136","probe-162","0.6262217697656851","0.42110192040597233","0.2939326923412665","0","","","","","","","",""
"","html-keyboard-response","389","1809888","0.0-202.0-1.0","null","<p></p>","null","","","","","","","","","","","","","","","","","","","","","","",""
"","do_trial","390","1814446","0.0-203.0-0.0","1.9000000059604645","","","","","","","","49","0,0,0","3","highway","137","probe-208","0.6056080830459467","0.32796997382595655","0.24730720483599253","0","","","","","","","",""
"","html-keyboard-response","391","1815458","0.0-203.0-1.0","null","<p></p>","null","","","","","","","","","","","","","","","","","","","","","","",""
"","do_trial","392","1820014","0.0-204.0-0.0","7.799999982118607","","","","","","","","50","1,0,0","3","highway","138","probe-175","0.6851601872668986","0.20060180467036395","0.08136360668085596","0","","","","","","","",""
"","html-keyboard-response","393","1821025","0.0-204.0-1.0","null","<p></p>","null","","","","","","","","","","","","","","","","","","","","","","",""
"","do_trial","394","1825585","0.0-205.0-0.0","0.09999999403953552","","","","","","","","49","0,0,0","3","highway","139","probe-209","0.6123912663146519","0.24354997974253073","0.06503849626441337","0","","","","","","","",""
"","html-keyboard-response","395","1826595","0.0-205.0-1.0","null","<p></p>","null","","","","","","","","","","","","","","","","","","","","","","",""
"","do_trial","396","1831135","0.0-206.0-0.0","0.09999999403953552","","","","","","","","51","1,0,0","3","highway","140","probe-23","0.5862481064956906","0.2383698809775296","0.05714648429393954","0","","","","","","","",""
"","html-keyboard-response","397","1832149","0.0-206.0-1.0","null","<p></p>","null","","","","","","","","","","","","","","","","","","","","","","",""
"","do_trial","398","1836704","0.0-207.0-0.0","0.20000001788139343","","","","","","","","49","1,0,0","3","highway","141","probe-64","0.43645345795164864","0.21634163446356802","0.08393825742131573","1","","","","","","","",""
"","html-keyboard-response","399","1837720","0.0-207.0-1.0","null","<p></p>","null","","","","","","","","","","","","","","","","","","","","","","",""
"","do_trial","400","1842366","0.0-208.0-0.0","102","","","","","","","","50","1,0,1","3","highway","142","probe-130","0.6330494069705965","0.23652974449997835","0.08571283613980026","0","","","","","","","",""
"","html-keyboard-response","401","1843373","0.0-208.0-1.0","null","<p></p>","null","","","","","","","","","","","","","","","","","","","","","","",""
"","do_trial","402","1848212","0.0-209.0-0.0","287.5","","","","","","","","50","1,0,0","3","highway","143","probe-45","0.6880854291852253","0.21046690744510835","0.19560962127374873","0","","","","","","","",""
"","html-keyboard-response","403","1849215","0.0-209.0-1.0","null","<p></p>","null","","","","","","","","","","","","","","","","","","","","","","",""
"","do_trial","404","1853804","0.0-210.0-0.0","28.200000017881393","","","","","","","","49","1,0,1","3","highway","144","probe-69","0.6371481886815905","0.07306153690670517","0.2553449025446405","1","","","","","","","",""
"","html-keyboard-response","405","1854813","0.0-210.0-1.0","null","<p></p>","null","","","","","","","","","","","","","","","","","","","","","","",""
"","do_trial","406","1859388","0.0-211.0-0.0","16.799999982118607","","","","","","","","50","0,0,0","3","highway","145","probe-132","0.5566256524238006","0.16049025083804314","0.21832981758637676","0","","","","","","","",""
"","html-keyboard-response","407","1860396","0.0-211.0-1.0","null","<p></p>","null","","","","","","","","","","","","","","","","","","","","","","",""
"","do_trial","408","1864952","0.0-212.0-0.0","0.09999999403953552","","","","","","","","49","1,1,0","3","highway","146","probe-183","0.732284645183768","0.2740381218406227","0.050713909360568826","1","","","","","","","",""
"","html-keyboard-response","409","1865964","0.0-212.0-1.0","null","<p></p>","null","","","","","","","","","","","","","","","","","","","","","","",""
"","do_trial","410","1870582","0.0-213.0-0.0","70.40000000596046","","","","","","","","51","0,0,0","3","highway","147","probe-210","0.5247648601071735","0.20133047816771857","0.06716165315883334","0","","","","","","","",""
"","html-keyboard-response","411","1871593","0.0-213.0-1.0","null","<p></p>","null","","","","","","","","","","","","","","","","","","","","","","",""
"","do_trial","412","1876248","0.0-214.0-0.0","116.59999999403954","","","","","","","","49","1,0,0","3","highway","148","probe-184","0.5625719144623159","0.2384779011956088","0.2044988594592148","1","","","","","","","",""
"","html-keyboard-response","413","1877258","0.0-214.0-1.0","null","<p></p>","null","","","","","","","","","","","","","","","","","","","","","","",""
"","do_trial","414","1881863","0.0-215.0-0.0","56.10000002384186","","","","","","","","49","1,0,0","3","highway","149","probe-177","0.636169952828382","0.33127297302486164","0.05744168070862369","1","","","","","","","",""
"","html-keyboard-response","415","1882873","0.0-215.0-1.0","null","<p></p>","null","","","","","","","","","","","","","","","","","","","","","","",""
"","do_bye","416","1884386","0.0-216.0-0.0","null","","","","","","","","null","","","","","","","","","","","","","","","","",""
"","break","417","2004402","0.0-216.0-1.0","null","<div class='center'><p>Time to take a quick break! You have 2 minutes to rest, but you can move on sooner if you'd like.</p><p> Press the <b>space bar</b> to continue.</p></div>","null","","","","","","","","","","","","","","","","","","","","","","",""
"","do_travel","418","2013417","0.0-217.0-0.0","null","","","","","","","","null","","","","","","","","","","","","","","","","",""
"","do_welcome","419","2017430","0.0-217.0-1.0","null","","","","","","","","null","","","","","","","","","","","","","","","","",""
"","do_trial","420","2021984","0.0-218.0-0.0","0","","","","","","","","51","1,0,0","4","mountain","150","probe-182","1","0.421876129270207","0.15202729020771696","0","","","","","","","",""
"","html-keyboard-response","421","2022992","0.0-218.0-1.0","null","<p></p>","null","","","","","","","","","","","","","","","","","","","","","","",""
"","do_trial","422","2027602","0.0-219.0-0.0","60.39999997615814","","","","","","","","49","1,0,0","4","mountain","151","probe-211","1","0.4168265630091652","0.09107226416092236","1","","","","","","","",""
"","html-keyboard-response","423","2028614","0.0-219.0-1.0","null","<p></p>","null","","","","","","","","","","","","","","","","","","","","","","",""
"","do_trial","424","2033173","0.0-220.0-0.0","0.20000001788139343","","","","","","","","50","1,0,0","4","mountain","152","probe-163","0.9060984529888997","0.23181646160587527","0.1341735722489619","0","","","","","","","",""
"","html-keyboard-response","425","2034186","0.0-220.0-1.0","null","<p></p>","null","","","","","","","","","","","","","","","","","","","","","","",""
"","do_trial","426","2038735","0.0-221.0-0.0","0.19999998807907104","","","","","","","","49","1,0,0","4","mountain","153","probe-12","0.7595751077044353","0.26661282100769657","0.07673690985066318","1","","","","","","","",""
"","html-keyboard-response","427","2039747","0.0-221.0-1.0","null","<p></p>","null","","","","","","","","","","","","","","","","","","","","","","",""
"","do_trial","428","2044350","0.0-222.0-0.0","51.400000005960464","","","","","","","","49","1,1,1","4","mountain","154","probe-106","0.7339526953993596","0.23504761081742603","0.10522941133403761","1","","","","","","","",""
"","html-keyboard-response","429","2045364","0.0-222.0-1.0","null","<p></p>","null","","","","","","","","","","","","","","","","","","","","","","",""
"","do_trial","430","2049912","0.0-223.0-0.0","0","","","","","","","","51","0,0,0","4","mountain","155","probe-102","0.49017538632942337","0.2611731630464067","0.07111766462849825","0","","","","","","","",""
"","html-keyboard-response","431","2050924","0.0-223.0-1.0","null","<p></p>","null","","","","","","","","","","","","","","","","","","","","","","",""
"","do_trial","432","2056262","0.0-224.0-0.0","781.1999999880791","","","","","","","","51","1,0,0","4","mountain","156","probe-73","0.5616046683634204","0.19800360101193426","0.11288810778408212","0","","","","","","","",""
"","html-keyboard-response","433","2057266","0.0-224.0-1.0","null","<p></p>","null","","","","","","","","","","","","","","","","","","","","","","",""
"","do_trial","434","2062335","0.0-225.0-0.0","527.5","","","","","","","","51","0,0,0","4","mountain","157","probe-215","0.6062849550222862","0.31608876591901447","0.05602028753721503","0","","","","","","","",""
"","html-keyboard-response","435","2063348","0.0-225.0-1.0","null","<p></p>","null","","","","","","","","","","","","","","","","","","","","","","",""
"","do_trial","436","2068032","0.0-226.0-0.0","122.30000001192093","","","","","","","","49","0,0,0","4","mountain","158","probe-142","0.5937977568455954","0.47069117331772126","0.09134217027466501","0","","","","","","","",""
"","html-keyboard-response","437","2069042","0.0-226.0-1.0","null","<p></p>","null","","","","","","","","","","","","","","","","","","","","","","",""
"","do_trial","438","2073767","0.0-227.0-0.0","175.59999999403954","","","","","","","","50","0,1,0","4","mountain","159","probe-203","0.7000098916103358","0.4582094641742521","0.09957510832999837","1","","","","","","","",""
"","html-keyboard-response","439","2074775","0.0-227.0-1.0","null","<p></p>","null","","","","","","","","","","","","","","","","","","","","","","",""
"","do_trial","440","2079511","0.0-228.0-0.0","171.5","","","","","","","","49","1,0,1","4","mountain","160","probe-65","0.7055464881626473","0.5317552838230737","0.13911523764007638","1","","","","","","","",""
"","html-keyboard-response","441","2080519","0.0-228.0-1.0","null","<p></p>","null","","","","","","","","","","","","","","","","","","","","","","",""
"","do_trial","442","2085065","0.0-229.0-0.0","0","","","","","","","","49","1,1,1","4","mountain","161","probe-164","0.658549374903751","0.565998363637258","0.19419786060412705","1","","","","","","","",""
"","html-keyboard-response","443","2086074","0.0-229.0-1.0","null","<p></p>","null","","","","","","","","","","","","","","","","","","","","","","",""
"","do_trial","444","2090631","0.0-230.0-0.0","0.20000001788139343","","","","","","","","49","0,1,1","4","mountain","162","probe-200","0.4527529244041133","0.42782992358963357","0.5226141880970726","0","","","","","","","",""
"","html-keyboard-response","445","2091647","0.0-230.0-1.0","null","<p></p>","null","","","","","","","","","","","","","","","","","","","","","","",""
"","do_trial","446","2096384","0.0-231.0-0.0","194.90000000596046","","","","","","","","51","1,0,0","4","mountain","163","probe-230","0.252449274773191","0.42874280142814103","0.46017501058809634","0","","","","","","","",""
"","html-keyboard-response","447","2097397","0.0-231.0-1.0","null","<p></p>","null","","","","","","","","","","","","","","","","","","","","","","",""
"","do_trial","448","2101953","0.0-232.0-0.0","0.20000001788139343","","","","","","","","49","0,0,0","4","mountain","164","probe-53","0.21518680855081024","0.460112688057236","0.475823393172139","0","","","","","","","",""
"","html-keyboard-response","449","2102961","0.0-232.0-1.0","null","<p></p>","null","","","","","","","","","","","","","","","","","","","","","","",""
"","do_trial","450","2107514","0.0-233.0-0.0","0.09999999403953552","","","","","","","","49","0,0,0","4","mountain","165","probe-78","0.2918471231117485","0.3381455365960712","0.43102647367594393","0","","","","","","","",""
"","html-keyboard-response","451","2108515","0.0-233.0-1.0","null","<p></p>","null","","","","","","","","","","","","","","","","","","","","","","",""
"","do_trial","452","2113068","0.0-234.0-0.0","0.09999999403953552","","","","","","","","50","0,1,1","4","mountain","166","probe-79","0.13075613699729682","0.2652233108938066","0.6430324610395831","1","","","","","","","",""
"","html-keyboard-response","453","2114080","0.0-234.0-1.0","null","<p></p>","null","","","","","","","","","","","","","","","","","","","","","","",""
"","do_trial","454","2118633","0.0-235.0-0.0","0.10000002384185791","","","","","","","","51","0,0,0","4","mountain","167","probe-43","0.05770765249611441","0.2818301293084268","0.5503076701672577","0","","","","","","","",""
"","html-keyboard-response","455","2119641","0.0-235.0-1.0","null","<p></p>","null","","","","","","","","","","","","","","","","","","","","","","",""
"","do_trial","456","2124378","0.0-236.0-0.0","186.59999999403954","","","","","","","","50","0,0,0","4","mountain","168","probe-19","0.05602719277943244","0.17743659427735695","0.5663653022614581","0","","","","","","","",""
"","html-keyboard-response","457","2125388","0.0-236.0-1.0","null","<p></p>","null","","","","","","","","","","","","","","","","","","","","","","",""
"","do_trial","458","2130081","0.0-237.0-0.0","134.69999998807907","","","","","","","","50","0,0,0","4","mountain","169","probe-204","0.07226348091061738","0.22372244931386903","0.6656570638780103","0","","","","","","","",""
"","html-keyboard-response","459","2131087","0.0-237.0-1.0","null","<p></p>","null","","","","","","","","","","","","","","","","","","","","","","",""
"","do_trial","460","2135667","0.0-238.0-0.0","29.69999998807907","","","","","","","","50","0,0,1","4","mountain","170","probe-199","0.09991323179230505","0.21549910280148524","0.49369579197617625","0","","","","","","","",""
"","html-keyboard-response","461","2136671","0.0-238.0-1.0","null","<p></p>","null","","","","","","","","","","","","","","","","","","","","","","",""
"","do_trial","462","2141416","0.0-239.0-0.0","191.2999999821186","","","","","","","","49","0,0,0","4","mountain","171","probe-131","0.19086812056694946","0.25773747091537624","0.5875542040126494","0","","","","","","","",""
"","html-keyboard-response","463","2142429","0.0-239.0-1.0","null","<p></p>","null","","","","","","","","","","","","","","","","","","","","","","",""
"","do_trial","464","2147257","0.0-240.0-0.0","267.5","","","","","","","","49","0,0,1","4","mountain","172","probe-112","0.10299086965376099","0.19703275236469198","0.5635982467824724","0","","","","","","","",""
"","html-keyboard-response","465","2148263","0.0-240.0-1.0","null","<p></p>","null","","","","","","","","","","","","","","","","","","","","","","",""
"","do_trial","466","2152888","0.0-241.0-0.0","78.09999999403954","","","","","","","","49","0,0,0","4","mountain","173","probe-38","0.16467685811685692","0.23207273839938275","0.5878707957647384","0","","","","","","","",""
"","html-keyboard-response","467","2153901","0.0-241.0-1.0","null","<p></p>","null","","","","","","","","","","","","","","","","","","","","","","",""
"","do_trial","468","2158797","0.0-242.0-0.0","347","","","","","","","","49","0,0,0","4","mountain","174","probe-161","0.10629500014455434","0.23026970084579787","0.5352667433145544","0","","","","","","","",""
